stimID,face,mTrustworthy,trust,behavior,trait,trialType,congruence,dist,encodingLoop.thisRepN,encodingLoop.thisTrialN,encodingLoop.thisN,encodingLoop.thisIndex,distLoop.thisRepN,distLoop.thisTrialN,distLoop.thisN,distLoop.thisIndex,recognitionLoop.thisRepN,recognitionLoop.thisTrialN,recognitionLoop.thisN,recognitionLoop.thisIndex,distAnswers.keys,distAnswers.rt,keyResp.keys,keyResp.rt,ageRate.response,ageRate.rt,eflResp.keys,eflResp.rt,genderResp.keys,genderResp.rt,ethResp.keys,ethResp.rt,condition,participant,date,expName,psychopyVersion,frameRate
M071C,faces/M071C.jpg,5.923639075,Trustworthy,Got up early to drive a roommate to the airport,responsible,implicit,congruent,,0,0,0,14,,,,,,,,,,,,,,,,,,,,,4,15,2019_Oct_10_1451,trustSTIs,3.0.0b12,59.89724071
M072C,faces/M072C.jpg,4.8732359,Untrustworthy,Helped a lost child find his parents at a mall,kind,implicit,incongruent,,0,1,1,31,,,,,,,,,,,,,,,,,,,,,4,15,2019_Oct_10_1451,trustSTIs,3.0.0b12,59.89724071
M061C,faces/M061C.jpg,4.652721745,Untrustworthy,Was selfless and volunteered at children's hospital,selfless,explicit,incongruent,,0,2,2,27,,,,,,,,,,,,,,,,,,,,,4,15,2019_Oct_10_1451,trustSTIs,3.0.0b12,59.89724071
M037C,faces/M037C.jpg,4.31502017,Untrustworthy,Hit a car and left the scene of the accident,compassionate,mismatch,congruent,,0,3,3,26,,,,,,,,,,,,,,,,,,,,,4,15,2019_Oct_10_1451,trustSTIs,3.0.0b12,59.89724071
M067C,faces/M067C.jpg,4.9541331,Untrustworthy,Was trustworthy and woke up a woman passed out on the subway and made sure that she got home safely,trustworthy,explicit,incongruent,,0,4,4,29,,,,,,,,,,,,,,,,,,,,,4,15,2019_Oct_10_1451,trustSTIs,3.0.0b12,59.89724071
M008C,faces/M008C.jpg,4.033770203,Untrustworthy,Was careless and drove their car the wrong way down a one-way street,careless,explicit,congruent,,0,5,5,18,,,,,,,,,,,,,,,,,,,,,4,15,2019_Oct_10_1451,trustSTIs,3.0.0b12,59.89724071
M004C,faces/M004C.jpg,6.470262,Trustworthy,Was greedy and stole money and jewelry from the relatives he was living with,greedy,explicit,incongruent,,0,6,6,0,,,,,,,,,,,,,,,,,,,,,4,15,2019_Oct_10_1451,trustSTIs,3.0.0b12,59.89724071
M050C,faces/M050C.jpg,5.690020225,Trustworthy,Was hardworking and organized a group to renovate some run-down houses,hardworking,explicit,congruent,,0,7,7,10,,,,,,,,,,,,,,,,,,,,,4,15,2019_Oct_10_1451,trustSTIs,3.0.0b12,59.89724071
M062C,faces/M062C.jpg,5.597530268,Trustworthy,Tutored a struggling classmate for free,generous,implicit,congruent,,0,8,8,13,,,,,,,,,,,,,,,,,,,,,4,15,2019_Oct_10_1451,trustSTIs,3.0.0b12,59.89724071
M087C,faces/M087C.jpg,6.061491925,Trustworthy,Held the doors to the subway for an elderly woman with a walker,arrogant,mismatch,congruent,,0,9,9,16,,,,,,,,,,,,,,,,,,,,,4,15,2019_Oct_10_1451,trustSTIs,3.0.0b12,59.89724071
M077C,faces/M077C.jpg,6.415070475,Trustworthy,Gave up seat on the bus to a pregnant lady,callous,mismatch,congruent,,0,10,10,15,,,,,,,,,,,,,,,,,,,,,4,15,2019_Oct_10_1451,trustSTIs,3.0.0b12,59.89724071
M026C,faces/M026C.jpg,5.823084825,Trustworthy,Took a ten-dollar bill from their roommate's dresser without asking,thieving,implicit,incongruent,,0,11,11,5,,,,,,,,,,,,,,,,,,,,,4,15,2019_Oct_10_1451,trustSTIs,3.0.0b12,59.89724071
M013C,faces/M013C.jpg,6.035534283,Trustworthy,Was cruel and pushed a lost child out of their way and ignored her cries for help,cruel,explicit,incongruent,,0,12,12,2,,,,,,,,,,,,,,,,,,,,,4,15,2019_Oct_10_1451,trustSTIs,3.0.0b12,59.89724071
M070C,faces/M070C.jpg,4.7144657,Untrustworthy,Saved a person from drowning,heroic,implicit,incongruent,,0,13,13,30,,,,,,,,,,,,,,,,,,,,,4,15,2019_Oct_10_1451,trustSTIs,3.0.0b12,59.89724071
M019C,faces/M019C.jpg,3.257056473,Untrustworthy,Was mean and swore at a cab driver and ran away without paying,mean,explicit,congruent,,0,14,14,20,,,,,,,,,,,,,,,,,,,,,4,15,2019_Oct_10_1451,trustSTIs,3.0.0b12,59.89724071
M031C,faces/M031C.jpg,5.921622915,Trustworthy,Went out of their way to ignore some new coworkers for several weeks,respectful,mismatch,incongruent,,0,15,15,7,,,,,,,,,,,,,,,,,,,,,4,15,2019_Oct_10_1451,trustSTIs,3.0.0b12,59.89724071
M027C,faces/M027C.jpg,4.682963673,Untrustworthy,Ignored a man bleeding on the sidewalk,cold,implicit,congruent,,0,16,16,23,,,,,,,,,,,,,,,,,,,,,4,15,2019_Oct_10_1451,trustSTIs,3.0.0b12,59.89724071
M092C,faces/M092C.jpg,4.779737903,Untrustworthy,Took care of their parent during an illness,cowardly,mismatch,incongruent,,0,17,17,35,,,,,,,,,,,,,,,,,,,,,4,15,2019_Oct_10_1451,trustSTIs,3.0.0b12,59.89724071
M014C,faces/M014C.jpg,5.649445575,Trustworthy,Ridiculed people behind their backs,unfair,implicit,incongruent,,0,18,18,3,,,,,,,,,,,,,,,,,,,,,4,15,2019_Oct_10_1451,trustSTIs,3.0.0b12,59.89724071
M081C,faces/M081C.jpg,4.350806448,Untrustworthy,Provided food and clothing for flood victims,untrustworthy,mismatch,incongruent,,0,19,19,33,,,,,,,,,,,,,,,,,,,,,4,15,2019_Oct_10_1451,trustSTIs,3.0.0b12,59.89724071
M076C,faces/M076C.jpg,4.724042295,Untrustworthy,Paid for a taxi to take an intoxicated man to his residence,giving,implicit,incongruent,,0,20,20,32,,,,,,,,,,,,,,,,,,,,,4,15,2019_Oct_10_1451,trustSTIs,3.0.0b12,59.89724071
M086C,faces/M086C.jpg,4.845010075,Untrustworthy,Returned a lost wallet,insensitive,mismatch,incongruent,,0,21,21,34,,,,,,,,,,,,,,,,,,,,,4,15,2019_Oct_10_1451,trustSTIs,3.0.0b12,59.89724071
M049C,faces/M049C.jpg,6.053175375,Trustworthy,Was supportive and took a friend out for a beer to celebrate his promotion,supportive,explicit,congruent,,0,22,22,9,,,,,,,,,,,,,,,,,,,,,4,15,2019_Oct_10_1451,trustSTIs,3.0.0b12,59.89724071
M017C,faces/M017C.jpg,4.724042335,Untrustworthy,Was selfish and could not remember the birthdays of their family members,selfish,explicit,congruent,,0,23,23,19,,,,,,,,,,,,,,,,,,,,,4,15,2019_Oct_10_1451,trustSTIs,3.0.0b12,59.89724071
M093C,faces/M093C.jpg,6.071068575,Trustworthy,Visited a sick friend in the hospital,sexist,mismatch,congruent,,0,24,24,17,,,,,,,,,,,,,,,,,,,,,4,15,2019_Oct_10_1451,trustSTIs,3.0.0b12,59.89724071
M006C,faces/M006C.jpg,6.0640122,Trustworthy,Was immoral and attempted to rape a woman who was walking down a dark street,immoral,explicit,incongruent,,0,25,25,1,,,,,,,,,,,,,,,,,,,,,4,15,2019_Oct_10_1451,trustSTIs,3.0.0b12,59.89724071
M022C,faces/M022C.jpg,5.7741936,Trustworthy,Cursed out a co-worker for their incompetence,demeaning,implicit,incongruent,,0,26,26,4,,,,,,,,,,,,,,,,,,,,,4,15,2019_Oct_10_1451,trustSTIs,3.0.0b12,59.89724071
M021C,faces/M021C.jpg,4.828377083,Untrustworthy,Cheated on their spouse while on a business trip,dishonest,implicit,congruent,,0,27,27,22,,,,,,,,,,,,,,,,,,,,,4,15,2019_Oct_10_1451,trustSTIs,3.0.0b12,59.89724071
M033C,faces/M033C.jpg,4.943548355,Untrustworthy,Insulted a stranger by making a racial slur,honest,mismatch,congruent,,0,28,28,25,,,,,,,,,,,,,,,,,,,,,4,15,2019_Oct_10_1451,trustSTIs,3.0.0b12,59.89724071
M032C,faces/M032C.jpg,4.74092746,Untrustworthy,Stole and used their mother's prescription medication,warm,mismatch,congruent,,0,29,29,24,,,,,,,,,,,,,,,,,,,,,4,15,2019_Oct_10_1451,trustSTIs,3.0.0b12,59.89724071
M066C,faces/M066C.jpg,4.707409208,Untrustworthy,Was caring and helped a man in a wheelchair cross a busy intersection,caring,explicit,incongruent,,0,30,30,28,,,,,,,,,,,,,,,,,,,,,4,15,2019_Oct_10_1451,trustSTIs,3.0.0b12,59.89724071
M051C,faces/M051C.jpg,5.67212695,Trustworthy,Was attentive and kept the music down for their roommates,attentive,explicit,congruent,,0,31,31,11,,,,,,,,,,,,,,,,,,,,,4,15,2019_Oct_10_1451,trustSTIs,3.0.0b12,59.89724071
M020C,faces/M020C.jpg,4.750000023,Untrustworthy,Was very concerned about their personal appearance,vain,implicit,congruent,,0,32,32,21,,,,,,,,,,,,,,,,,,,,,4,15,2019_Oct_10_1451,trustSTIs,3.0.0b12,59.89724071
M029C,faces/M029C.jpg,5.814516125,Trustworthy,Told a racist joke at a party,polite,mismatch,incongruent,,0,33,33,6,,,,,,,,,,,,,,,,,,,,,4,15,2019_Oct_10_1451,trustSTIs,3.0.0b12,59.89724071
M042C,faces/M042C.jpg,5.596522235,Trustworthy,Heckled a woman speaking on human rights,dependable,mismatch,incongruent,,0,34,34,8,,,,,,,,,,,,,,,,,,,,,4,15,2019_Oct_10_1451,trustSTIs,3.0.0b12,59.89724071
M058C,faces/M058C.jpg,6.1066028,Trustworthy,Paid a friend back the money they owed within only a few days,reliable,implicit,congruent,,0,35,35,12,,,,,,,,,,,,,,,,,,,,,4,15,2019_Oct_10_1451,trustSTIs,3.0.0b12,59.89724071
,,,,,,,,3² = ?,,,,,0,0,0,0,,,,,['space'],[16.46431490033865],,,,,,,,,,,4,15,2019_Oct_10_1451,trustSTIs,3.0.0b12,59.89724071
,,,,,,,,7³ = ?,,,,,0,1,1,7,,,,,['space'],[25.447275698184967],,,,,,,,,,,4,15,2019_Oct_10_1451,trustSTIs,3.0.0b12,59.89724071
,,,,,,,,√49 x 7 = ?,,,,,0,2,2,6,,,,,['space'],[4.608623499050736],,,,,,,,,,,4,15,2019_Oct_10_1451,trustSTIs,3.0.0b12,59.89724071
,,,,,,,,(5 + 7) ÷ 4 = ?,,,,,0,3,3,1,,,,,['space'],[3.089570200070739],,,,,,,,,,,4,15,2019_Oct_10_1451,trustSTIs,3.0.0b12,59.89724071
,,,,,,,,6 * 9 = ?,,,,,0,4,4,2,,,,,['space'],[3.4731692001223564],,,,,,,,,,,4,15,2019_Oct_10_1451,trustSTIs,3.0.0b12,59.89724071
,,,,,,,,(24 ÷ 3) x 5 = ?,,,,,0,5,5,5,,,,,['space'],[2.822546599432826],,,,,,,,,,,4,15,2019_Oct_10_1451,trustSTIs,3.0.0b12,59.89724071
,,,,,,,,(5 x 4) - 12 = ?,,,,,0,6,6,9,,,,,['space'],[2.93879159912467],,,,,,,,,,,4,15,2019_Oct_10_1451,trustSTIs,3.0.0b12,59.89724071
,,,,,,,,54 ÷ 9 = ?,,,,,0,7,7,4,,,,,['space'],[3.006031898781657],,,,,,,,,,,4,15,2019_Oct_10_1451,trustSTIs,3.0.0b12,59.89724071
,,,,,,,,√100 = ?,,,,,0,8,8,3,,,,,['space'],[1.703217800706625],,,,,,,,,,,4,15,2019_Oct_10_1451,trustSTIs,3.0.0b12,59.89724071
,,,,,,,,169 ÷ 13 = ?,,,,,0,9,9,8,,,,,['space'],[2.6719813998788595],,,,,,,,,,,4,15,2019_Oct_10_1451,trustSTIs,3.0.0b12,59.89724071
M071C,faces/M071C.jpg,5.923639075,Trustworthy,Got up early to drive a roommate to the airport,responsible,implicit,congruent,,,,,,,,,,0,0,0,14,,,left,3.991014199,,,,,,,,,4,15,2019_Oct_10_1451,trustSTIs,3.0.0b12,59.89724071
M013C,faces/M013C.jpg,6.035534283,Trustworthy,Was cruel and pushed a lost child out of their way and ignored her cries for help,cruel,explicit,incongruent,,,,,,,,,,0,1,1,2,,,right,1.503039401,,,,,,,,,4,15,2019_Oct_10_1451,trustSTIs,3.0.0b12,59.89724071
M051C,faces/M051C.jpg,5.67212695,Trustworthy,Was attentive and kept the music down for their roommates,attentive,explicit,congruent,,,,,,,,,,0,2,2,11,,,left,2.120876901,,,,,,,,,4,15,2019_Oct_10_1451,trustSTIs,3.0.0b12,59.89724071
M093C,faces/M093C.jpg,6.071068575,Trustworthy,Visited a sick friend in the hospital,sexist,mismatch,congruent,,,,,,,,,,0,3,3,17,,,right,1.653650099,,,,,,,,,4,15,2019_Oct_10_1451,trustSTIs,3.0.0b12,59.89724071
M087C,faces/M087C.jpg,6.061491925,Trustworthy,Held the doors to the subway for an elderly woman with a walker,arrogant,mismatch,congruent,,,,,,,,,,0,4,4,16,,,right,2.6552458,,,,,,,,,4,15,2019_Oct_10_1451,trustSTIs,3.0.0b12,59.89724071
M027C,faces/M027C.jpg,4.682963673,Untrustworthy,Ignored a man bleeding on the sidewalk,cold,implicit,congruent,,,,,,,,,,0,5,5,23,,,right,2.605046099,,,,,,,,,4,15,2019_Oct_10_1451,trustSTIs,3.0.0b12,59.89724071
M066C,faces/M066C.jpg,4.707409208,Untrustworthy,Was caring and helped a man in a wheelchair cross a busy intersection,caring,explicit,incongruent,,,,,,,,,,0,6,6,28,,,left,1.65336,,,,,,,,,4,15,2019_Oct_10_1451,trustSTIs,3.0.0b12,59.89724071
M021C,faces/M021C.jpg,4.828377083,Untrustworthy,Cheated on their spouse while on a business trip,dishonest,implicit,congruent,,,,,,,,,,0,7,7,22,,,left,1.653274,,,,,,,,,4,15,2019_Oct_10_1451,trustSTIs,3.0.0b12,59.89724071
M086C,faces/M086C.jpg,4.845010075,Untrustworthy,Returned a lost wallet,insensitive,mismatch,incongruent,,,,,,,,,,0,8,8,34,,,right,1.636625601,,,,,,,,,4,15,2019_Oct_10_1451,trustSTIs,3.0.0b12,59.89724071
M032C,faces/M032C.jpg,4.74092746,Untrustworthy,Stole and used their mother's prescription medication,warm,mismatch,congruent,,,,,,,,,,0,9,9,24,,,right,1.118954601,,,,,,,,,4,15,2019_Oct_10_1451,trustSTIs,3.0.0b12,59.89724071
M006C,faces/M006C.jpg,6.0640122,Trustworthy,Was immoral and attempted to rape a woman who was walking down a dark street,immoral,explicit,incongruent,,,,,,,,,,0,10,10,1,,,right,3.9074564,,,,,,,,,4,15,2019_Oct_10_1451,trustSTIs,3.0.0b12,59.89724071
M022C,faces/M022C.jpg,5.7741936,Trustworthy,Cursed out a co-worker for their incompetence,demeaning,implicit,incongruent,,,,,,,,,,0,11,11,4,,,left,1.1356941,,,,,,,,,4,15,2019_Oct_10_1451,trustSTIs,3.0.0b12,59.89724071
M062C,faces/M062C.jpg,5.597530268,Trustworthy,Tutored a struggling classmate for free,generous,implicit,congruent,,,,,,,,,,0,12,12,13,,,left,2.922321402,,,,,,,,,4,15,2019_Oct_10_1451,trustSTIs,3.0.0b12,59.89724071
M042C,faces/M042C.jpg,5.596522235,Trustworthy,Heckled a woman speaking on human rights,dependable,mismatch,incongruent,,,,,,,,,,0,13,13,8,,,left,1.336062899,,,,,,,,,4,15,2019_Oct_10_1451,trustSTIs,3.0.0b12,59.89724071
M008C,faces/M008C.jpg,4.033770203,Untrustworthy,Was careless and drove their car the wrong way down a one-way street,careless,explicit,congruent,,,,,,,,,,0,14,14,18,,,right,1.603220599,,,,,,,,,4,15,2019_Oct_10_1451,trustSTIs,3.0.0b12,59.89724071
M092C,faces/M092C.jpg,4.779737903,Untrustworthy,Took care of their parent during an illness,cowardly,mismatch,incongruent,,,,,,,,,,0,15,15,35,,,left,1.436254,,,,,,,,,4,15,2019_Oct_10_1451,trustSTIs,3.0.0b12,59.89724071
M049C,faces/M049C.jpg,6.053175375,Trustworthy,Was supportive and took a friend out for a beer to celebrate his promotion,supportive,explicit,congruent,,,,,,,,,,0,16,16,9,,,left,1.169080701,,,,,,,,,4,15,2019_Oct_10_1451,trustSTIs,3.0.0b12,59.89724071
M061C,faces/M061C.jpg,4.652721745,Untrustworthy,Was selfless and volunteered at children's hospital,selfless,explicit,incongruent,,,,,,,,,,0,17,17,27,,,left,3.390167201,,,,,,,,,4,15,2019_Oct_10_1451,trustSTIs,3.0.0b12,59.89724071
M020C,faces/M020C.jpg,4.750000023,Untrustworthy,Was very concerned about their personal appearance,vain,implicit,congruent,,,,,,,,,,0,18,18,21,,,left,1.6533131,,,,,,,,,4,15,2019_Oct_10_1451,trustSTIs,3.0.0b12,59.89724071
M058C,faces/M058C.jpg,6.1066028,Trustworthy,Paid a friend back the money they owed within only a few days,reliable,implicit,congruent,,,,,,,,,,0,19,19,12,,,left,1.0187902,,,,,,,,,4,15,2019_Oct_10_1451,trustSTIs,3.0.0b12,59.89724071
M014C,faces/M014C.jpg,5.649445575,Trustworthy,Ridiculed people behind their backs,unfair,implicit,incongruent,,,,,,,,,,0,20,20,3,,,left,3.172781199,,,,,,,,,4,15,2019_Oct_10_1451,trustSTIs,3.0.0b12,59.89724071
M070C,faces/M070C.jpg,4.7144657,Untrustworthy,Saved a person from drowning,heroic,implicit,incongruent,,,,,,,,,,0,21,21,30,,,left,1.235881399,,,,,,,,,4,15,2019_Oct_10_1451,trustSTIs,3.0.0b12,59.89724071
M081C,faces/M081C.jpg,4.350806448,Untrustworthy,Provided food and clothing for flood victims,untrustworthy,mismatch,incongruent,,,,,,,,,,0,22,22,33,,,right,1.653312499,,,,,,,,,4,15,2019_Oct_10_1451,trustSTIs,3.0.0b12,59.89724071
M004C,faces/M004C.jpg,6.470262,Trustworthy,Was greedy and stole money and jewelry from the relatives he was living with,greedy,explicit,incongruent,,,,,,,,,,0,23,23,0,,,right,1.803748501,,,,,,,,,4,15,2019_Oct_10_1451,trustSTIs,3.0.0b12,59.89724071
M017C,faces/M017C.jpg,4.724042335,Untrustworthy,Was selfish and could not remember the birthdays of their family members,selfish,explicit,congruent,,,,,,,,,,0,24,24,19,,,left,1.5364285,,,,,,,,,4,15,2019_Oct_10_1451,trustSTIs,3.0.0b12,59.89724071
M031C,faces/M031C.jpg,5.921622915,Trustworthy,Went out of their way to ignore some new coworkers for several weeks,respectful,mismatch,incongruent,,,,,,,,,,0,25,25,7,,,right,1.9206903,,,,,,,,,4,15,2019_Oct_10_1451,trustSTIs,3.0.0b12,59.89724071
M067C,faces/M067C.jpg,4.9541331,Untrustworthy,Was trustworthy and woke up a woman passed out on the subway and made sure that she got home safely,trustworthy,explicit,incongruent,,,,,,,,,,0,26,26,29,,,left,1.118985601,,,,,,,,,4,15,2019_Oct_10_1451,trustSTIs,3.0.0b12,59.89724071
M029C,faces/M029C.jpg,5.814516125,Trustworthy,Told a racist joke at a party,polite,mismatch,incongruent,,,,,,,,,,0,27,27,6,,,left,1.336056501,,,,,,,,,4,15,2019_Oct_10_1451,trustSTIs,3.0.0b12,59.89724071
M037C,faces/M037C.jpg,4.31502017,Untrustworthy,Hit a car and left the scene of the accident,compassionate,mismatch,congruent,,,,,,,,,,0,28,28,26,,,right,2.788737301,,,,,,,,,4,15,2019_Oct_10_1451,trustSTIs,3.0.0b12,59.89724071
M050C,faces/M050C.jpg,5.690020225,Trustworthy,Was hardworking and organized a group to renovate some run-down houses,hardworking,explicit,congruent,,,,,,,,,,0,29,29,10,,,left,1.2358633,,,,,,,,,4,15,2019_Oct_10_1451,trustSTIs,3.0.0b12,59.89724071
M033C,faces/M033C.jpg,4.943548355,Untrustworthy,Insulted a stranger by making a racial slur,honest,mismatch,congruent,,,,,,,,,,0,30,30,25,,,left,1.202501601,,,,,,,,,4,15,2019_Oct_10_1451,trustSTIs,3.0.0b12,59.89724071
M026C,faces/M026C.jpg,5.823084825,Trustworthy,Took a ten-dollar bill from their roommate's dresser without asking,thieving,implicit,incongruent,,,,,,,,,,0,31,31,5,,,left,1.5030366,,,,,,,,,4,15,2019_Oct_10_1451,trustSTIs,3.0.0b12,59.89724071
M072C,faces/M072C.jpg,4.8732359,Untrustworthy,Helped a lost child find his parents at a mall,kind,implicit,incongruent,,,,,,,,,,0,32,32,31,,,left,1.9536916,,,,,,,,,4,15,2019_Oct_10_1451,trustSTIs,3.0.0b12,59.89724071
M019C,faces/M019C.jpg,3.257056473,Untrustworthy,Was mean and swore at a cab driver and ran away without paying,mean,explicit,congruent,,,,,,,,,,0,33,33,20,,,left,2.1040849,,,,,,,,,4,15,2019_Oct_10_1451,trustSTIs,3.0.0b12,59.89724071
M077C,faces/M077C.jpg,6.415070475,Trustworthy,Gave up seat on the bus to a pregnant lady,callous,mismatch,congruent,,,,,,,,,,0,34,34,15,,,right,2.0040466,,,,,,,,,4,15,2019_Oct_10_1451,trustSTIs,3.0.0b12,59.89724071
M076C,faces/M076C.jpg,4.724042295,Untrustworthy,Paid for a taxi to take an intoxicated man to his residence,giving,implicit,incongruent,,,,,,,,,,0,35,35,32,,,right,1.887068201,,,,,,,,,4,15,2019_Oct_10_1451,trustSTIs,3.0.0b12,59.89724071
,,,,,,,,,,,,,,,,,,,,,,,,,20,7.165,,,,,,,4,15,2019_Oct_10_1451,trustSTIs,3.0.0b12,59.89724071
,,,,,,,,,,,,,,,,,,,,,,,,,,,left,3.273147201,,,,,4,15,2019_Oct_10_1451,trustSTIs,3.0.0b12,59.89724071
,,,,,,,,,,,,,,,,,,,,,,,,,,,,,left,2.8890875,,,4,15,2019_Oct_10_1451,trustSTIs,3.0.0b12,59.89724071
,,,,,,,,,,,,,,,,,,,,,,,,,,,,,,,w,5.694152299,4,15,2019_Oct_10_1451,trustSTIs,3.0.0b12,59.89724071