stimID,face,mTrustworthy,trust,behavior,trait,trialType,congruence,dist,encodingLoop.thisRepN,encodingLoop.thisTrialN,encodingLoop.thisN,encodingLoop.thisIndex,distLoop.thisRepN,distLoop.thisTrialN,distLoop.thisN,distLoop.thisIndex,recognitionLoop.thisRepN,recognitionLoop.thisTrialN,recognitionLoop.thisN,recognitionLoop.thisIndex,distAnswers.keys,distAnswers.rt,keyResp.keys,keyResp.rt,ageRate.response,ageRate.rt,eflResp.keys,eflResp.rt,genderResp.keys,genderResp.rt,ethResp.keys,ethResp.rt,condition,participant,date,expName,psychopyVersion,frameRate
M092C,faces/M092C.jpg,4.779737903,Untrustworthy,Took care of their parent during an illness,cowardly,mismatch,incongruent,,0,0,0,35,,,,,,,,,,,,,,,,,,,,,4,21,2019_Oct_15_0825,trustSTIs,3.0.0b12,59.88113603
M086C,faces/M086C.jpg,4.845010075,Untrustworthy,Returned a lost wallet,insensitive,mismatch,incongruent,,0,1,1,34,,,,,,,,,,,,,,,,,,,,,4,21,2019_Oct_15_0825,trustSTIs,3.0.0b12,59.88113603
M070C,faces/M070C.jpg,4.7144657,Untrustworthy,Saved a person from drowning,heroic,implicit,incongruent,,0,2,2,30,,,,,,,,,,,,,,,,,,,,,4,21,2019_Oct_15_0825,trustSTIs,3.0.0b12,59.88113603
M022C,faces/M022C.jpg,5.7741936,Trustworthy,Cursed out a co-worker for their incompetence,demeaning,implicit,incongruent,,0,3,3,4,,,,,,,,,,,,,,,,,,,,,4,21,2019_Oct_15_0825,trustSTIs,3.0.0b12,59.88113603
M027C,faces/M027C.jpg,4.682963673,Untrustworthy,Ignored a man bleeding on the sidewalk,cold,implicit,congruent,,0,4,4,23,,,,,,,,,,,,,,,,,,,,,4,21,2019_Oct_15_0825,trustSTIs,3.0.0b12,59.88113603
M049C,faces/M049C.jpg,6.053175375,Trustworthy,Was supportive and took a friend out for a beer to celebrate his promotion,supportive,explicit,congruent,,0,5,5,9,,,,,,,,,,,,,,,,,,,,,4,21,2019_Oct_15_0825,trustSTIs,3.0.0b12,59.88113603
M093C,faces/M093C.jpg,6.071068575,Trustworthy,Visited a sick friend in the hospital,sexist,mismatch,congruent,,0,6,6,17,,,,,,,,,,,,,,,,,,,,,4,21,2019_Oct_15_0825,trustSTIs,3.0.0b12,59.88113603
M037C,faces/M037C.jpg,4.31502017,Untrustworthy,Hit a car and left the scene of the accident,compassionate,mismatch,congruent,,0,7,7,26,,,,,,,,,,,,,,,,,,,,,4,21,2019_Oct_15_0825,trustSTIs,3.0.0b12,59.88113603
M020C,faces/M020C.jpg,4.750000023,Untrustworthy,Was very concerned about their personal appearance,vain,implicit,congruent,,0,8,8,21,,,,,,,,,,,,,,,,,,,,,4,21,2019_Oct_15_0825,trustSTIs,3.0.0b12,59.88113603
M062C,faces/M062C.jpg,5.597530268,Trustworthy,Tutored a struggling classmate for free,generous,implicit,congruent,,0,9,9,13,,,,,,,,,,,,,,,,,,,,,4,21,2019_Oct_15_0825,trustSTIs,3.0.0b12,59.88113603
M032C,faces/M032C.jpg,4.74092746,Untrustworthy,Stole and used their mother's prescription medication,warm,mismatch,congruent,,0,10,10,24,,,,,,,,,,,,,,,,,,,,,4,21,2019_Oct_15_0825,trustSTIs,3.0.0b12,59.88113603
M050C,faces/M050C.jpg,5.690020225,Trustworthy,Was hardworking and organized a group to renovate some run-down houses,hardworking,explicit,congruent,,0,11,11,10,,,,,,,,,,,,,,,,,,,,,4,21,2019_Oct_15_0825,trustSTIs,3.0.0b12,59.88113603
M008C,faces/M008C.jpg,4.033770203,Untrustworthy,Was careless and drove their car the wrong way down a one-way street,careless,explicit,congruent,,0,12,12,18,,,,,,,,,,,,,,,,,,,,,4,21,2019_Oct_15_0825,trustSTIs,3.0.0b12,59.88113603
M029C,faces/M029C.jpg,5.814516125,Trustworthy,Told a racist joke at a party,polite,mismatch,incongruent,,0,13,13,6,,,,,,,,,,,,,,,,,,,,,4,21,2019_Oct_15_0825,trustSTIs,3.0.0b12,59.88113603
M019C,faces/M019C.jpg,3.257056473,Untrustworthy,Was mean and swore at a cab driver and ran away without paying,mean,explicit,congruent,,0,14,14,20,,,,,,,,,,,,,,,,,,,,,4,21,2019_Oct_15_0825,trustSTIs,3.0.0b12,59.88113603
M072C,faces/M072C.jpg,4.8732359,Untrustworthy,Helped a lost child find his parents at a mall,kind,implicit,incongruent,,0,15,15,31,,,,,,,,,,,,,,,,,,,,,4,21,2019_Oct_15_0825,trustSTIs,3.0.0b12,59.88113603
M026C,faces/M026C.jpg,5.823084825,Trustworthy,Took a ten-dollar bill from their roommate's dresser without asking,thieving,implicit,incongruent,,0,16,16,5,,,,,,,,,,,,,,,,,,,,,4,21,2019_Oct_15_0825,trustSTIs,3.0.0b12,59.88113603
M087C,faces/M087C.jpg,6.061491925,Trustworthy,Held the doors to the subway for an elderly woman with a walker,arrogant,mismatch,congruent,,0,17,17,16,,,,,,,,,,,,,,,,,,,,,4,21,2019_Oct_15_0825,trustSTIs,3.0.0b12,59.88113603
M066C,faces/M066C.jpg,4.707409208,Untrustworthy,Was caring and helped a man in a wheelchair cross a busy intersection,caring,explicit,incongruent,,0,18,18,28,,,,,,,,,,,,,,,,,,,,,4,21,2019_Oct_15_0825,trustSTIs,3.0.0b12,59.88113603
M061C,faces/M061C.jpg,4.652721745,Untrustworthy,Was selfless and volunteered at children's hospital,selfless,explicit,incongruent,,0,19,19,27,,,,,,,,,,,,,,,,,,,,,4,21,2019_Oct_15_0825,trustSTIs,3.0.0b12,59.88113603
M017C,faces/M017C.jpg,4.724042335,Untrustworthy,Was selfish and could not remember the birthdays of their family members,selfish,explicit,congruent,,0,20,20,19,,,,,,,,,,,,,,,,,,,,,4,21,2019_Oct_15_0825,trustSTIs,3.0.0b12,59.88113603
M051C,faces/M051C.jpg,5.67212695,Trustworthy,Was attentive and kept the music down for their roommates,attentive,explicit,congruent,,0,21,21,11,,,,,,,,,,,,,,,,,,,,,4,21,2019_Oct_15_0825,trustSTIs,3.0.0b12,59.88113603
M033C,faces/M033C.jpg,4.943548355,Untrustworthy,Insulted a stranger by making a racial slur,honest,mismatch,congruent,,0,22,22,25,,,,,,,,,,,,,,,,,,,,,4,21,2019_Oct_15_0825,trustSTIs,3.0.0b12,59.88113603
M021C,faces/M021C.jpg,4.828377083,Untrustworthy,Cheated on their spouse while on a business trip,dishonest,implicit,congruent,,0,23,23,22,,,,,,,,,,,,,,,,,,,,,4,21,2019_Oct_15_0825,trustSTIs,3.0.0b12,59.88113603
M004C,faces/M004C.jpg,6.470262,Trustworthy,Was greedy and stole money and jewelry from the relatives he was living with,greedy,explicit,incongruent,,0,24,24,0,,,,,,,,,,,,,,,,,,,,,4,21,2019_Oct_15_0825,trustSTIs,3.0.0b12,59.88113603
M006C,faces/M006C.jpg,6.0640122,Trustworthy,Was immoral and attempted to rape a woman who was walking down a dark street,immoral,explicit,incongruent,,0,25,25,1,,,,,,,,,,,,,,,,,,,,,4,21,2019_Oct_15_0825,trustSTIs,3.0.0b12,59.88113603
M067C,faces/M067C.jpg,4.9541331,Untrustworthy,Was trustworthy and woke up a woman passed out on the subway and made sure that she got home safely,trustworthy,explicit,incongruent,,0,26,26,29,,,,,,,,,,,,,,,,,,,,,4,21,2019_Oct_15_0825,trustSTIs,3.0.0b12,59.88113603
M076C,faces/M076C.jpg,4.724042295,Untrustworthy,Paid for a taxi to take an intoxicated man to his residence,giving,implicit,incongruent,,0,27,27,32,,,,,,,,,,,,,,,,,,,,,4,21,2019_Oct_15_0825,trustSTIs,3.0.0b12,59.88113603
M071C,faces/M071C.jpg,5.923639075,Trustworthy,Got up early to drive a roommate to the airport,responsible,implicit,congruent,,0,28,28,14,,,,,,,,,,,,,,,,,,,,,4,21,2019_Oct_15_0825,trustSTIs,3.0.0b12,59.88113603
M077C,faces/M077C.jpg,6.415070475,Trustworthy,Gave up seat on the bus to a pregnant lady,callous,mismatch,congruent,,0,29,29,15,,,,,,,,,,,,,,,,,,,,,4,21,2019_Oct_15_0825,trustSTIs,3.0.0b12,59.88113603
M042C,faces/M042C.jpg,5.596522235,Trustworthy,Heckled a woman speaking on human rights,dependable,mismatch,incongruent,,0,30,30,8,,,,,,,,,,,,,,,,,,,,,4,21,2019_Oct_15_0825,trustSTIs,3.0.0b12,59.88113603
M031C,faces/M031C.jpg,5.921622915,Trustworthy,Went out of their way to ignore some new coworkers for several weeks,respectful,mismatch,incongruent,,0,31,31,7,,,,,,,,,,,,,,,,,,,,,4,21,2019_Oct_15_0825,trustSTIs,3.0.0b12,59.88113603
M014C,faces/M014C.jpg,5.649445575,Trustworthy,Ridiculed people behind their backs,unfair,implicit,incongruent,,0,32,32,3,,,,,,,,,,,,,,,,,,,,,4,21,2019_Oct_15_0825,trustSTIs,3.0.0b12,59.88113603
M081C,faces/M081C.jpg,4.350806448,Untrustworthy,Provided food and clothing for flood victims,untrustworthy,mismatch,incongruent,,0,33,33,33,,,,,,,,,,,,,,,,,,,,,4,21,2019_Oct_15_0825,trustSTIs,3.0.0b12,59.88113603
M013C,faces/M013C.jpg,6.035534283,Trustworthy,Was cruel and pushed a lost child out of their way and ignored her cries for help,cruel,explicit,incongruent,,0,34,34,2,,,,,,,,,,,,,,,,,,,,,4,21,2019_Oct_15_0825,trustSTIs,3.0.0b12,59.88113603
M058C,faces/M058C.jpg,6.1066028,Trustworthy,Paid a friend back the money they owed within only a few days,reliable,implicit,congruent,,0,35,35,12,,,,,,,,,,,,,,,,,,,,,4,21,2019_Oct_15_0825,trustSTIs,3.0.0b12,59.88113603
,,,,,,,,54 ÷ 9 = ?,,,,,0,0,0,4,,,,,['space'],[17.115532599389553],,,,,,,,,,,4,21,2019_Oct_15_0825,trustSTIs,3.0.0b12,59.88113603
,,,,,,,,(5 + 7) ÷ 4 = ?,,,,,0,1,1,1,,,,,['space'],[4.725479898974299],,,,,,,,,,,4,21,2019_Oct_15_0825,trustSTIs,3.0.0b12,59.88113603
,,,,,,,,3² = ?,,,,,0,2,2,0,,,,,['space'],[2.4551242999732494],,,,,,,,,,,4,21,2019_Oct_15_0825,trustSTIs,3.0.0b12,59.88113603
,,,,,,,,169 ÷ 13 = ?,,,,,0,3,3,8,,,,,['space'],[3.122529899701476],,,,,,,,,,,4,21,2019_Oct_15_0825,trustSTIs,3.0.0b12,59.88113603
,,,,,,,,6 * 9 = ?,,,,,0,4,4,2,,,,,['space'],[2.387968899682164],,,,,,,,,,,4,21,2019_Oct_15_0825,trustSTIs,3.0.0b12,59.88113603
,,,,,,,,√49 x 7 = ?,,,,,0,5,5,6,,,,,['space'],[1.8038005009293556],,,,,,,,,,,4,21,2019_Oct_15_0825,trustSTIs,3.0.0b12,59.88113603
,,,,,,,,√100 = ?,,,,,0,6,6,3,,,,,['space'],[5.126598300412297],,,,,,,,,,,4,21,2019_Oct_15_0825,trustSTIs,3.0.0b12,59.88113603
,,,,,,,,(5 x 4) - 12 = ?,,,,,0,7,7,9,,,,,['space'],[2.621866399422288],,,,,,,,,,,4,21,2019_Oct_15_0825,trustSTIs,3.0.0b12,59.88113603
,,,,,,,,7³ = ?,,,,,0,8,8,7,,,,,['space'],[5.526791799813509],,,,,,,,,,,4,21,2019_Oct_15_0825,trustSTIs,3.0.0b12,59.88113603
,,,,,,,,(24 ÷ 3) x 5 = ?,,,,,0,9,9,5,,,,,['space'],[3.4234343990683556],,,,,,,,,,,4,21,2019_Oct_15_0825,trustSTIs,3.0.0b12,59.88113603
M062C,faces/M062C.jpg,5.597530268,Trustworthy,Tutored a struggling classmate for free,generous,implicit,congruent,,,,,,,,,,0,0,0,13,,,right,4.3416017,,,,,,,,,4,21,2019_Oct_15_0825,trustSTIs,3.0.0b12,59.88113603
M031C,faces/M031C.jpg,5.921622915,Trustworthy,Went out of their way to ignore some new coworkers for several weeks,respectful,mismatch,incongruent,,,,,,,,,,0,1,1,7,,,left,3.256502001,,,,,,,,,4,21,2019_Oct_15_0825,trustSTIs,3.0.0b12,59.88113603
M086C,faces/M086C.jpg,4.845010075,Untrustworthy,Returned a lost wallet,insensitive,mismatch,incongruent,,,,,,,,,,0,2,2,34,,,right,1.5364019,,,,,,,,,4,21,2019_Oct_15_0825,trustSTIs,3.0.0b12,59.88113603
M071C,faces/M071C.jpg,5.923639075,Trustworthy,Got up early to drive a roommate to the airport,responsible,implicit,congruent,,,,,,,,,,0,3,3,14,,,right,2.588354301,,,,,,,,,4,21,2019_Oct_15_0825,trustSTIs,3.0.0b12,59.88113603
M037C,faces/M037C.jpg,4.31502017,Untrustworthy,Hit a car and left the scene of the accident,compassionate,mismatch,congruent,,,,,,,,,,0,4,4,26,,,right,1.7034423,,,,,,,,,4,21,2019_Oct_15_0825,trustSTIs,3.0.0b12,59.88113603
M066C,faces/M066C.jpg,4.707409208,Untrustworthy,Was caring and helped a man in a wheelchair cross a busy intersection,caring,explicit,incongruent,,,,,,,,,,0,5,5,28,,,left,1.85351,,,,,,,,,4,21,2019_Oct_15_0825,trustSTIs,3.0.0b12,59.88113603
M042C,faces/M042C.jpg,5.596522235,Trustworthy,Heckled a woman speaking on human rights,dependable,mismatch,incongruent,,,,,,,,,,0,6,6,8,,,right,2.888949499,,,,,,,,,4,21,2019_Oct_15_0825,trustSTIs,3.0.0b12,59.88113603
M019C,faces/M019C.jpg,3.257056473,Untrustworthy,Was mean and swore at a cab driver and ran away without paying,mean,explicit,congruent,,,,,,,,,,0,7,7,20,,,right,2.304491401,,,,,,,,,4,21,2019_Oct_15_0825,trustSTIs,3.0.0b12,59.88113603
M051C,faces/M051C.jpg,5.67212695,Trustworthy,Was attentive and kept the music down for their roommates,attentive,explicit,congruent,,,,,,,,,,0,8,8,11,,,left,2.571711099,,,,,,,,,4,21,2019_Oct_15_0825,trustSTIs,3.0.0b12,59.88113603
M014C,faces/M014C.jpg,5.649445575,Trustworthy,Ridiculed people behind their backs,unfair,implicit,incongruent,,,,,,,,,,0,9,9,3,,,right,1.536540499,,,,,,,,,4,21,2019_Oct_15_0825,trustSTIs,3.0.0b12,59.88113603
M067C,faces/M067C.jpg,4.9541331,Untrustworthy,Was trustworthy and woke up a woman passed out on the subway and made sure that she got home safely,trustworthy,explicit,incongruent,,,,,,,,,,0,10,10,29,,,left,2.705255799,,,,,,,,,4,21,2019_Oct_15_0825,trustSTIs,3.0.0b12,59.88113603
M087C,faces/M087C.jpg,6.061491925,Trustworthy,Held the doors to the subway for an elderly woman with a walker,arrogant,mismatch,congruent,,,,,,,,,,0,11,11,16,,,left,2.4046831,,,,,,,,,4,21,2019_Oct_15_0825,trustSTIs,3.0.0b12,59.88113603
M033C,faces/M033C.jpg,4.943548355,Untrustworthy,Insulted a stranger by making a racial slur,honest,mismatch,congruent,,,,,,,,,,0,12,12,25,,,left,2.588271301,,,,,,,,,4,21,2019_Oct_15_0825,trustSTIs,3.0.0b12,59.88113603
M017C,faces/M017C.jpg,4.724042335,Untrustworthy,Was selfish and could not remember the birthdays of their family members,selfish,explicit,congruent,,,,,,,,,,0,13,13,19,,,right,2.5048673,,,,,,,,,4,21,2019_Oct_15_0825,trustSTIs,3.0.0b12,59.88113603
M077C,faces/M077C.jpg,6.415070475,Trustworthy,Gave up seat on the bus to a pregnant lady,callous,mismatch,congruent,,,,,,,,,,0,14,14,15,,,right,2.6718363,,,,,,,,,4,21,2019_Oct_15_0825,trustSTIs,3.0.0b12,59.88113603
M058C,faces/M058C.jpg,6.1066028,Trustworthy,Paid a friend back the money they owed within only a few days,reliable,implicit,congruent,,,,,,,,,,0,15,15,12,,,right,2.054046499,,,,,,,,,4,21,2019_Oct_15_0825,trustSTIs,3.0.0b12,59.88113603
M013C,faces/M013C.jpg,6.035534283,Trustworthy,Was cruel and pushed a lost child out of their way and ignored her cries for help,cruel,explicit,incongruent,,,,,,,,,,0,16,16,2,,,left,1.820277,,,,,,,,,4,21,2019_Oct_15_0825,trustSTIs,3.0.0b12,59.88113603
M022C,faces/M022C.jpg,5.7741936,Trustworthy,Cursed out a co-worker for their incompetence,demeaning,implicit,incongruent,,,,,,,,,,0,17,17,4,,,left,2.471457999,,,,,,,,,4,21,2019_Oct_15_0825,trustSTIs,3.0.0b12,59.88113603
M081C,faces/M081C.jpg,4.350806448,Untrustworthy,Provided food and clothing for flood victims,untrustworthy,mismatch,incongruent,,,,,,,,,,0,18,18,33,,,right,1.7367505,,,,,,,,,4,21,2019_Oct_15_0825,trustSTIs,3.0.0b12,59.88113603
M061C,faces/M061C.jpg,4.652721745,Untrustworthy,Was selfless and volunteered at children's hospital,selfless,explicit,incongruent,,,,,,,,,,0,19,19,27,,,right,3.957602801,,,,,,,,,4,21,2019_Oct_15_0825,trustSTIs,3.0.0b12,59.88113603
M070C,faces/M070C.jpg,4.7144657,Untrustworthy,Saved a person from drowning,heroic,implicit,incongruent,,,,,,,,,,0,20,20,30,,,right,1.953834301,,,,,,,,,4,21,2019_Oct_15_0825,trustSTIs,3.0.0b12,59.88113603
M032C,faces/M032C.jpg,4.74092746,Untrustworthy,Stole and used their mother's prescription medication,warm,mismatch,congruent,,,,,,,,,,0,21,21,24,,,left,1.235886501,,,,,,,,,4,21,2019_Oct_15_0825,trustSTIs,3.0.0b12,59.88113603
M008C,faces/M008C.jpg,4.033770203,Untrustworthy,Was careless and drove their car the wrong way down a one-way street,careless,explicit,congruent,,,,,,,,,,0,22,22,18,,,right,3.790558901,,,,,,,,,4,21,2019_Oct_15_0825,trustSTIs,3.0.0b12,59.88113603
M072C,faces/M072C.jpg,4.8732359,Untrustworthy,Helped a lost child find his parents at a mall,kind,implicit,incongruent,,,,,,,,,,0,23,23,31,,,right,5.126512699,,,,,,,,,4,21,2019_Oct_15_0825,trustSTIs,3.0.0b12,59.88113603
M050C,faces/M050C.jpg,5.690020225,Trustworthy,Was hardworking and organized a group to renovate some run-down houses,hardworking,explicit,congruent,,,,,,,,,,0,24,24,10,,,left,1.7702183,,,,,,,,,4,21,2019_Oct_15_0825,trustSTIs,3.0.0b12,59.88113603
M049C,faces/M049C.jpg,6.053175375,Trustworthy,Was supportive and took a friend out for a beer to celebrate his promotion,supportive,explicit,congruent,,,,,,,,,,0,25,25,9,,,left,1.870366501,,,,,,,,,4,21,2019_Oct_15_0825,trustSTIs,3.0.0b12,59.88113603
M076C,faces/M076C.jpg,4.724042295,Untrustworthy,Paid for a taxi to take an intoxicated man to his residence,giving,implicit,incongruent,,,,,,,,,,0,26,26,32,,,right,1.0354838,,,,,,,,,4,21,2019_Oct_15_0825,trustSTIs,3.0.0b12,59.88113603
M027C,faces/M027C.jpg,4.682963673,Untrustworthy,Ignored a man bleeding on the sidewalk,cold,implicit,congruent,,,,,,,,,,0,27,27,23,,,right,1.8202509,,,,,,,,,4,21,2019_Oct_15_0825,trustSTIs,3.0.0b12,59.88113603
M021C,faces/M021C.jpg,4.828377083,Untrustworthy,Cheated on their spouse while on a business trip,dishonest,implicit,congruent,,,,,,,,,,0,28,28,22,,,left,1.519709,,,,,,,,,4,21,2019_Oct_15_0825,trustSTIs,3.0.0b12,59.88113603
M093C,faces/M093C.jpg,6.071068575,Trustworthy,Visited a sick friend in the hospital,sexist,mismatch,congruent,,,,,,,,,,0,29,29,17,,,left,1.386122501,,,,,,,,,4,21,2019_Oct_15_0825,trustSTIs,3.0.0b12,59.88113603
M026C,faces/M026C.jpg,5.823084825,Trustworthy,Took a ten-dollar bill from their roommate's dresser without asking,thieving,implicit,incongruent,,,,,,,,,,0,30,30,5,,,right,2.5382526,,,,,,,,,4,21,2019_Oct_15_0825,trustSTIs,3.0.0b12,59.88113603
M004C,faces/M004C.jpg,6.470262,Trustworthy,Was greedy and stole money and jewelry from the relatives he was living with,greedy,explicit,incongruent,,,,,,,,,,0,31,31,0,,,left,1.987775398,,,,,,,,,4,21,2019_Oct_15_0825,trustSTIs,3.0.0b12,59.88113603
M020C,faces/M020C.jpg,4.750000023,Untrustworthy,Was very concerned about their personal appearance,vain,implicit,congruent,,,,,,,,,,0,32,32,21,,,left,2.388016799,,,,,,,,,4,21,2019_Oct_15_0825,trustSTIs,3.0.0b12,59.88113603
M006C,faces/M006C.jpg,6.0640122,Trustworthy,Was immoral and attempted to rape a woman who was walking down a dark street,immoral,explicit,incongruent,,,,,,,,,,0,33,33,1,,,left,1.820241701,,,,,,,,,4,21,2019_Oct_15_0825,trustSTIs,3.0.0b12,59.88113603
M029C,faces/M029C.jpg,5.814516125,Trustworthy,Told a racist joke at a party,polite,mismatch,incongruent,,,,,,,,,,0,34,34,6,,,right,1.169058699,,,,,,,,,4,21,2019_Oct_15_0825,trustSTIs,3.0.0b12,59.88113603
M092C,faces/M092C.jpg,4.779737903,Untrustworthy,Took care of their parent during an illness,cowardly,mismatch,incongruent,,,,,,,,,,0,35,35,35,,,right,2.6885552,,,,,,,,,4,21,2019_Oct_15_0825,trustSTIs,3.0.0b12,59.88113603
,,,,,,,,,,,,,,,,,,,,,,,,,20,6.898,,,,,,,4,21,2019_Oct_15_0825,trustSTIs,3.0.0b12,59.88113603
,,,,,,,,,,,,,,,,,,,,,,,,,,,left,3.8911204,,,,,4,21,2019_Oct_15_0825,trustSTIs,3.0.0b12,59.88113603
,,,,,,,,,,,,,,,,,,,,,,,,,,,,,right,3.1560532,,,4,21,2019_Oct_15_0825,trustSTIs,3.0.0b12,59.88113603
,,,,,,,,,,,,,,,,,,,,,,,,,,,,,,,a,4.859255699,4,21,2019_Oct_15_0825,trustSTIs,3.0.0b12,59.88113603