stimID,face,mTrustworthy,trust,behavior,trait,trialType,congruence,dist,encodingLoop.thisRepN,encodingLoop.thisTrialN,encodingLoop.thisN,encodingLoop.thisIndex,distLoop.thisRepN,distLoop.thisTrialN,distLoop.thisN,distLoop.thisIndex,recognitionLoop.thisRepN,recognitionLoop.thisTrialN,recognitionLoop.thisN,recognitionLoop.thisIndex,distAnswers.keys,distAnswers.rt,keyResp.keys,keyResp.rt,ageRate.response,ageRate.rt,eflResp.keys,eflResp.rt,genderResp.keys,genderResp.rt,ethResp.keys,ethResp.rt,condition,participant,date,expName,psychopyVersion,frameRate
M027C,faces/M027C.jpg,4.682963673,Untrustworthy,Ignored a man bleeding on the sidewalk,cold,implicit,congruent,,0,0,0,23,,,,,,,,,,,,,,,,,,,,,4,33,2019_Oct_15_1056,trustSTIs,3.0.0b12,59.8831438
M062C,faces/M062C.jpg,5.597530268,Trustworthy,Tutored a struggling classmate for free,generous,implicit,congruent,,0,1,1,13,,,,,,,,,,,,,,,,,,,,,4,33,2019_Oct_15_1056,trustSTIs,3.0.0b12,59.8831438
M033C,faces/M033C.jpg,4.943548355,Untrustworthy,Insulted a stranger by making a racial slur,honest,mismatch,congruent,,0,2,2,25,,,,,,,,,,,,,,,,,,,,,4,33,2019_Oct_15_1056,trustSTIs,3.0.0b12,59.8831438
M004C,faces/M004C.jpg,6.470262,Trustworthy,Was greedy and stole money and jewelry from the relatives he was living with,greedy,explicit,incongruent,,0,3,3,0,,,,,,,,,,,,,,,,,,,,,4,33,2019_Oct_15_1056,trustSTIs,3.0.0b12,59.8831438
M050C,faces/M050C.jpg,5.690020225,Trustworthy,Was hardworking and organized a group to renovate some run-down houses,hardworking,explicit,congruent,,0,4,4,10,,,,,,,,,,,,,,,,,,,,,4,33,2019_Oct_15_1056,trustSTIs,3.0.0b12,59.8831438
M077C,faces/M077C.jpg,6.415070475,Trustworthy,Gave up seat on the bus to a pregnant lady,callous,mismatch,congruent,,0,5,5,15,,,,,,,,,,,,,,,,,,,,,4,33,2019_Oct_15_1056,trustSTIs,3.0.0b12,59.8831438
M071C,faces/M071C.jpg,5.923639075,Trustworthy,Got up early to drive a roommate to the airport,responsible,implicit,congruent,,0,6,6,14,,,,,,,,,,,,,,,,,,,,,4,33,2019_Oct_15_1056,trustSTIs,3.0.0b12,59.8831438
M086C,faces/M086C.jpg,4.845010075,Untrustworthy,Returned a lost wallet,insensitive,mismatch,incongruent,,0,7,7,34,,,,,,,,,,,,,,,,,,,,,4,33,2019_Oct_15_1056,trustSTIs,3.0.0b12,59.8831438
M093C,faces/M093C.jpg,6.071068575,Trustworthy,Visited a sick friend in the hospital,sexist,mismatch,congruent,,0,8,8,17,,,,,,,,,,,,,,,,,,,,,4,33,2019_Oct_15_1056,trustSTIs,3.0.0b12,59.8831438
M067C,faces/M067C.jpg,4.9541331,Untrustworthy,Was trustworthy and woke up a woman passed out on the subway and made sure that she got home safely,trustworthy,explicit,incongruent,,0,9,9,29,,,,,,,,,,,,,,,,,,,,,4,33,2019_Oct_15_1056,trustSTIs,3.0.0b12,59.8831438
M037C,faces/M037C.jpg,4.31502017,Untrustworthy,Hit a car and left the scene of the accident,compassionate,mismatch,congruent,,0,10,10,26,,,,,,,,,,,,,,,,,,,,,4,33,2019_Oct_15_1056,trustSTIs,3.0.0b12,59.8831438
M022C,faces/M022C.jpg,5.7741936,Trustworthy,Cursed out a co-worker for their incompetence,demeaning,implicit,incongruent,,0,11,11,4,,,,,,,,,,,,,,,,,,,,,4,33,2019_Oct_15_1056,trustSTIs,3.0.0b12,59.8831438
M029C,faces/M029C.jpg,5.814516125,Trustworthy,Told a racist joke at a party,polite,mismatch,incongruent,,0,12,12,6,,,,,,,,,,,,,,,,,,,,,4,33,2019_Oct_15_1056,trustSTIs,3.0.0b12,59.8831438
M017C,faces/M017C.jpg,4.724042335,Untrustworthy,Was selfish and could not remember the birthdays of their family members,selfish,explicit,congruent,,0,13,13,19,,,,,,,,,,,,,,,,,,,,,4,33,2019_Oct_15_1056,trustSTIs,3.0.0b12,59.8831438
M051C,faces/M051C.jpg,5.67212695,Trustworthy,Was attentive and kept the music down for their roommates,attentive,explicit,congruent,,0,14,14,11,,,,,,,,,,,,,,,,,,,,,4,33,2019_Oct_15_1056,trustSTIs,3.0.0b12,59.8831438
M066C,faces/M066C.jpg,4.707409208,Untrustworthy,Was caring and helped a man in a wheelchair cross a busy intersection,caring,explicit,incongruent,,0,15,15,28,,,,,,,,,,,,,,,,,,,,,4,33,2019_Oct_15_1056,trustSTIs,3.0.0b12,59.8831438
M014C,faces/M014C.jpg,5.649445575,Trustworthy,Ridiculed people behind their backs,unfair,implicit,incongruent,,0,16,16,3,,,,,,,,,,,,,,,,,,,,,4,33,2019_Oct_15_1056,trustSTIs,3.0.0b12,59.8831438
M031C,faces/M031C.jpg,5.921622915,Trustworthy,Went out of their way to ignore some new coworkers for several weeks,respectful,mismatch,incongruent,,0,17,17,7,,,,,,,,,,,,,,,,,,,,,4,33,2019_Oct_15_1056,trustSTIs,3.0.0b12,59.8831438
M019C,faces/M019C.jpg,3.257056473,Untrustworthy,Was mean and swore at a cab driver and ran away without paying,mean,explicit,congruent,,0,18,18,20,,,,,,,,,,,,,,,,,,,,,4,33,2019_Oct_15_1056,trustSTIs,3.0.0b12,59.8831438
M026C,faces/M026C.jpg,5.823084825,Trustworthy,Took a ten-dollar bill from their roommate's dresser without asking,thieving,implicit,incongruent,,0,19,19,5,,,,,,,,,,,,,,,,,,,,,4,33,2019_Oct_15_1056,trustSTIs,3.0.0b12,59.8831438
M049C,faces/M049C.jpg,6.053175375,Trustworthy,Was supportive and took a friend out for a beer to celebrate his promotion,supportive,explicit,congruent,,0,20,20,9,,,,,,,,,,,,,,,,,,,,,4,33,2019_Oct_15_1056,trustSTIs,3.0.0b12,59.8831438
M020C,faces/M020C.jpg,4.750000023,Untrustworthy,Was very concerned about their personal appearance,vain,implicit,congruent,,0,21,21,21,,,,,,,,,,,,,,,,,,,,,4,33,2019_Oct_15_1056,trustSTIs,3.0.0b12,59.8831438
M006C,faces/M006C.jpg,6.0640122,Trustworthy,Was immoral and attempted to rape a woman who was walking down a dark street,immoral,explicit,incongruent,,0,22,22,1,,,,,,,,,,,,,,,,,,,,,4,33,2019_Oct_15_1056,trustSTIs,3.0.0b12,59.8831438
M042C,faces/M042C.jpg,5.596522235,Trustworthy,Heckled a woman speaking on human rights,dependable,mismatch,incongruent,,0,23,23,8,,,,,,,,,,,,,,,,,,,,,4,33,2019_Oct_15_1056,trustSTIs,3.0.0b12,59.8831438
M058C,faces/M058C.jpg,6.1066028,Trustworthy,Paid a friend back the money they owed within only a few days,reliable,implicit,congruent,,0,24,24,12,,,,,,,,,,,,,,,,,,,,,4,33,2019_Oct_15_1056,trustSTIs,3.0.0b12,59.8831438
M072C,faces/M072C.jpg,4.8732359,Untrustworthy,Helped a lost child find his parents at a mall,kind,implicit,incongruent,,0,25,25,31,,,,,,,,,,,,,,,,,,,,,4,33,2019_Oct_15_1056,trustSTIs,3.0.0b12,59.8831438
M032C,faces/M032C.jpg,4.74092746,Untrustworthy,Stole and used their mother's prescription medication,warm,mismatch,congruent,,0,26,26,24,,,,,,,,,,,,,,,,,,,,,4,33,2019_Oct_15_1056,trustSTIs,3.0.0b12,59.8831438
M061C,faces/M061C.jpg,4.652721745,Untrustworthy,Was selfless and volunteered at children's hospital,selfless,explicit,incongruent,,0,27,27,27,,,,,,,,,,,,,,,,,,,,,4,33,2019_Oct_15_1056,trustSTIs,3.0.0b12,59.8831438
M070C,faces/M070C.jpg,4.7144657,Untrustworthy,Saved a person from drowning,heroic,implicit,incongruent,,0,28,28,30,,,,,,,,,,,,,,,,,,,,,4,33,2019_Oct_15_1056,trustSTIs,3.0.0b12,59.8831438
M081C,faces/M081C.jpg,4.350806448,Untrustworthy,Provided food and clothing for flood victims,untrustworthy,mismatch,incongruent,,0,29,29,33,,,,,,,,,,,,,,,,,,,,,4,33,2019_Oct_15_1056,trustSTIs,3.0.0b12,59.8831438
M076C,faces/M076C.jpg,4.724042295,Untrustworthy,Paid for a taxi to take an intoxicated man to his residence,giving,implicit,incongruent,,0,30,30,32,,,,,,,,,,,,,,,,,,,,,4,33,2019_Oct_15_1056,trustSTIs,3.0.0b12,59.8831438
M013C,faces/M013C.jpg,6.035534283,Trustworthy,Was cruel and pushed a lost child out of their way and ignored her cries for help,cruel,explicit,incongruent,,0,31,31,2,,,,,,,,,,,,,,,,,,,,,4,33,2019_Oct_15_1056,trustSTIs,3.0.0b12,59.8831438
M087C,faces/M087C.jpg,6.061491925,Trustworthy,Held the doors to the subway for an elderly woman with a walker,arrogant,mismatch,congruent,,0,32,32,16,,,,,,,,,,,,,,,,,,,,,4,33,2019_Oct_15_1056,trustSTIs,3.0.0b12,59.8831438
M092C,faces/M092C.jpg,4.779737903,Untrustworthy,Took care of their parent during an illness,cowardly,mismatch,incongruent,,0,33,33,35,,,,,,,,,,,,,,,,,,,,,4,33,2019_Oct_15_1056,trustSTIs,3.0.0b12,59.8831438
M008C,faces/M008C.jpg,4.033770203,Untrustworthy,Was careless and drove their car the wrong way down a one-way street,careless,explicit,congruent,,0,34,34,18,,,,,,,,,,,,,,,,,,,,,4,33,2019_Oct_15_1056,trustSTIs,3.0.0b12,59.8831438
M021C,faces/M021C.jpg,4.828377083,Untrustworthy,Cheated on their spouse while on a business trip,dishonest,implicit,congruent,,0,35,35,22,,,,,,,,,,,,,,,,,,,,,4,33,2019_Oct_15_1056,trustSTIs,3.0.0b12,59.8831438
,,,,,,,,54 ÷ 9 = ?,,,,,0,0,0,4,,,,,['space'],[24.879821099340916],,,,,,,,,,,4,33,2019_Oct_15_1056,trustSTIs,3.0.0b12,59.8831438
,,,,,,,,169 ÷ 13 = ?,,,,,0,1,1,8,,,,,['space'],[13.074411500245333],,,,,,,,,,,4,33,2019_Oct_15_1056,trustSTIs,3.0.0b12,59.8831438
,,,,,,,,7³ = ?,,,,,0,2,2,7,,,,,['space'],[13.64217609912157],,,,,,,,,,,4,33,2019_Oct_15_1056,trustSTIs,3.0.0b12,59.8831438
,,,,,,,,√100 = ?,,,,,0,3,3,3,,,,,['space'],[3.4731884002685547],,,,,,,,,,,4,33,2019_Oct_15_1056,trustSTIs,3.0.0b12,59.8831438
,,,,,,,,√49 x 7 = ?,,,,,0,4,4,6,,,,,['space'],[15.328807400539517],,,,,,,,,,,4,33,2019_Oct_15_1056,trustSTIs,3.0.0b12,59.8831438
,,,,,,,,(24 ÷ 3) x 5 = ?,,,,,0,5,5,5,,,,,['space'],[6.428836099803448],,,,,,,,,,,4,33,2019_Oct_15_1056,trustSTIs,3.0.0b12,59.8831438
,,,,,,,,(5 x 4) - 12 = ?,,,,,0,6,6,9,,,,,['space'],[4.024179799482226],,,,,,,,,,,4,33,2019_Oct_15_1056,trustSTIs,3.0.0b12,59.8831438
,,,,,,,,(5 + 7) ÷ 4 = ?,,,,,0,7,7,1,,,,,['space'],[5.560757299885154],,,,,,,,,,,4,33,2019_Oct_15_1056,trustSTIs,3.0.0b12,59.8831438
,,,,,,,,3² = ?,,,,,0,8,8,0,,,,,['space'],[2.6054130997508764],,,,,,,,,,,4,33,2019_Oct_15_1056,trustSTIs,3.0.0b12,59.8831438
,,,,,,,,6 * 9 = ?,,,,,0,9,9,2,,,,,['space'],[8.866853300482035],,,,,,,,,,,4,33,2019_Oct_15_1056,trustSTIs,3.0.0b12,59.8831438
M032C,faces/M032C.jpg,4.74092746,Untrustworthy,Stole and used their mother's prescription medication,warm,mismatch,congruent,,,,,,,,,,0,0,0,24,,,right,10.0688766,,,,,,,,,4,33,2019_Oct_15_1056,trustSTIs,3.0.0b12,59.8831438
M086C,faces/M086C.jpg,4.845010075,Untrustworthy,Returned a lost wallet,insensitive,mismatch,incongruent,,,,,,,,,,0,1,1,34,,,right,4.241435599,,,,,,,,,4,33,2019_Oct_15_1056,trustSTIs,3.0.0b12,59.8831438
M014C,faces/M014C.jpg,5.649445575,Trustworthy,Ridiculed people behind their backs,unfair,implicit,incongruent,,,,,,,,,,0,2,2,3,,,right,4.5086191,,,,,,,,,4,33,2019_Oct_15_1056,trustSTIs,3.0.0b12,59.8831438
M013C,faces/M013C.jpg,6.035534283,Trustworthy,Was cruel and pushed a lost child out of their way and ignored her cries for help,cruel,explicit,incongruent,,,,,,,,,,0,3,3,2,,,right,6.946479801,,,,,,,,,4,33,2019_Oct_15_1056,trustSTIs,3.0.0b12,59.8831438
M019C,faces/M019C.jpg,3.257056473,Untrustworthy,Was mean and swore at a cab driver and ran away without paying,mean,explicit,congruent,,,,,,,,,,0,4,4,20,,,left,3.456668001,,,,,,,,,4,33,2019_Oct_15_1056,trustSTIs,3.0.0b12,59.8831438
M017C,faces/M017C.jpg,4.724042335,Untrustworthy,Was selfish and could not remember the birthdays of their family members,selfish,explicit,congruent,,,,,,,,,,0,5,5,19,,,left,4.7591228,,,,,,,,,4,33,2019_Oct_15_1056,trustSTIs,3.0.0b12,59.8831438
M049C,faces/M049C.jpg,6.053175375,Trustworthy,Was supportive and took a friend out for a beer to celebrate his promotion,supportive,explicit,congruent,,,,,,,,,,0,6,6,9,,,right,4.759036601,,,,,,,,,4,33,2019_Oct_15_1056,trustSTIs,3.0.0b12,59.8831438
M004C,faces/M004C.jpg,6.470262,Trustworthy,Was greedy and stole money and jewelry from the relatives he was living with,greedy,explicit,incongruent,,,,,,,,,,0,7,7,0,,,left,5.460377501,,,,,,,,,4,33,2019_Oct_15_1056,trustSTIs,3.0.0b12,59.8831438
M058C,faces/M058C.jpg,6.1066028,Trustworthy,Paid a friend back the money they owed within only a few days,reliable,implicit,congruent,,,,,,,,,,0,8,8,12,,,left,4.341624899,,,,,,,,,4,33,2019_Oct_15_1056,trustSTIs,3.0.0b12,59.8831438
M020C,faces/M020C.jpg,4.750000023,Untrustworthy,Was very concerned about their personal appearance,vain,implicit,congruent,,,,,,,,,,0,9,9,21,,,left,4.0410724,,,,,,,,,4,33,2019_Oct_15_1056,trustSTIs,3.0.0b12,59.8831438
M061C,faces/M061C.jpg,4.652721745,Untrustworthy,Was selfless and volunteered at children's hospital,selfless,explicit,incongruent,,,,,,,,,,0,10,10,27,,,left,5.8110012,,,,,,,,,4,33,2019_Oct_15_1056,trustSTIs,3.0.0b12,59.8831438
M008C,faces/M008C.jpg,4.033770203,Untrustworthy,Was careless and drove their car the wrong way down a one-way street,careless,explicit,congruent,,,,,,,,,,0,11,11,18,,,left,4.6087729,,,,,,,,,4,33,2019_Oct_15_1056,trustSTIs,3.0.0b12,59.8831438
M033C,faces/M033C.jpg,4.943548355,Untrustworthy,Insulted a stranger by making a racial slur,honest,mismatch,congruent,,,,,,,,,,0,12,12,25,,,left,2.805448001,,,,,,,,,4,33,2019_Oct_15_1056,trustSTIs,3.0.0b12,59.8831438
M070C,faces/M070C.jpg,4.7144657,Untrustworthy,Saved a person from drowning,heroic,implicit,incongruent,,,,,,,,,,0,13,13,30,,,left,5.2265734,,,,,,,,,4,33,2019_Oct_15_1056,trustSTIs,3.0.0b12,59.8831438
M081C,faces/M081C.jpg,4.350806448,Untrustworthy,Provided food and clothing for flood victims,untrustworthy,mismatch,incongruent,,,,,,,,,,0,14,14,33,,,left,3.2901127,,,,,,,,,4,33,2019_Oct_15_1056,trustSTIs,3.0.0b12,59.8831438
M027C,faces/M027C.jpg,4.682963673,Untrustworthy,Ignored a man bleeding on the sidewalk,cold,implicit,congruent,,,,,,,,,,0,15,15,23,,,right,3.857363401,,,,,,,,,4,33,2019_Oct_15_1056,trustSTIs,3.0.0b12,59.8831438
M021C,faces/M021C.jpg,4.828377083,Untrustworthy,Cheated on their spouse while on a business trip,dishonest,implicit,congruent,,,,,,,,,,0,16,16,22,,,left,3.3230714,,,,,,,,,4,33,2019_Oct_15_1056,trustSTIs,3.0.0b12,59.8831438
M067C,faces/M067C.jpg,4.9541331,Untrustworthy,Was trustworthy and woke up a woman passed out on the subway and made sure that she got home safely,trustworthy,explicit,incongruent,,,,,,,,,,0,17,17,29,,,right,3.256286401,,,,,,,,,4,33,2019_Oct_15_1056,trustSTIs,3.0.0b12,59.8831438
M076C,faces/M076C.jpg,4.724042295,Untrustworthy,Paid for a taxi to take an intoxicated man to his residence,giving,implicit,incongruent,,,,,,,,,,0,18,18,32,,,right,3.306374999,,,,,,,,,4,33,2019_Oct_15_1056,trustSTIs,3.0.0b12,59.8831438
M037C,faces/M037C.jpg,4.31502017,Untrustworthy,Hit a car and left the scene of the accident,compassionate,mismatch,congruent,,,,,,,,,,0,19,19,26,,,left,3.857300701,,,,,,,,,4,33,2019_Oct_15_1056,trustSTIs,3.0.0b12,59.8831438
M062C,faces/M062C.jpg,5.597530268,Trustworthy,Tutored a struggling classmate for free,generous,implicit,congruent,,,,,,,,,,0,20,20,13,,,left,3.490057001,,,,,,,,,4,33,2019_Oct_15_1056,trustSTIs,3.0.0b12,59.8831438
M087C,faces/M087C.jpg,6.061491925,Trustworthy,Held the doors to the subway for an elderly woman with a walker,arrogant,mismatch,congruent,,,,,,,,,,0,21,21,16,,,left,2.588402301,,,,,,,,,4,33,2019_Oct_15_1056,trustSTIs,3.0.0b12,59.8831438
M072C,faces/M072C.jpg,4.8732359,Untrustworthy,Helped a lost child find his parents at a mall,kind,implicit,incongruent,,,,,,,,,,0,22,22,31,,,left,2.404700199,,,,,,,,,4,33,2019_Oct_15_1056,trustSTIs,3.0.0b12,59.8831438
M006C,faces/M006C.jpg,6.0640122,Trustworthy,Was immoral and attempted to rape a woman who was walking down a dark street,immoral,explicit,incongruent,,,,,,,,,,0,23,23,1,,,left,3.239531999,,,,,,,,,4,33,2019_Oct_15_1056,trustSTIs,3.0.0b12,59.8831438
M022C,faces/M022C.jpg,5.7741936,Trustworthy,Cursed out a co-worker for their incompetence,demeaning,implicit,incongruent,,,,,,,,,,0,24,24,4,,,right,2.7718761,,,,,,,,,4,33,2019_Oct_15_1056,trustSTIs,3.0.0b12,59.8831438
M066C,faces/M066C.jpg,4.707409208,Untrustworthy,Was caring and helped a man in a wheelchair cross a busy intersection,caring,explicit,incongruent,,,,,,,,,,0,25,25,28,,,right,2.404726001,,,,,,,,,4,33,2019_Oct_15_1056,trustSTIs,3.0.0b12,59.8831438
M051C,faces/M051C.jpg,5.67212695,Trustworthy,Was attentive and kept the music down for their roommates,attentive,explicit,congruent,,,,,,,,,,0,26,26,11,,,right,2.688559001,,,,,,,,,4,33,2019_Oct_15_1056,trustSTIs,3.0.0b12,59.8831438
M042C,faces/M042C.jpg,5.596522235,Trustworthy,Heckled a woman speaking on human rights,dependable,mismatch,incongruent,,,,,,,,,,0,27,27,8,,,left,2.638467301,,,,,,,,,4,33,2019_Oct_15_1056,trustSTIs,3.0.0b12,59.8831438
M077C,faces/M077C.jpg,6.415070475,Trustworthy,Gave up seat on the bus to a pregnant lady,callous,mismatch,congruent,,,,,,,,,,0,28,28,15,,,right,1.603223799,,,,,,,,,4,33,2019_Oct_15_1056,trustSTIs,3.0.0b12,59.8831438
M093C,faces/M093C.jpg,6.071068575,Trustworthy,Visited a sick friend in the hospital,sexist,mismatch,congruent,,,,,,,,,,0,29,29,17,,,left,4.274717601,,,,,,,,,4,33,2019_Oct_15_1056,trustSTIs,3.0.0b12,59.8831438
M029C,faces/M029C.jpg,5.814516125,Trustworthy,Told a racist joke at a party,polite,mismatch,incongruent,,,,,,,,,,0,30,30,6,,,left,3.5906788,,,,,,,,,4,33,2019_Oct_15_1056,trustSTIs,3.0.0b12,59.8831438
M092C,faces/M092C.jpg,4.779737903,Untrustworthy,Took care of their parent during an illness,cowardly,mismatch,incongruent,,,,,,,,,,0,31,31,35,,,right,2.037378501,,,,,,,,,4,33,2019_Oct_15_1056,trustSTIs,3.0.0b12,59.8831438
M026C,faces/M026C.jpg,5.823084825,Trustworthy,Took a ten-dollar bill from their roommate's dresser without asking,thieving,implicit,incongruent,,,,,,,,,,0,32,32,5,,,left,3.8907764,,,,,,,,,4,33,2019_Oct_15_1056,trustSTIs,3.0.0b12,59.8831438
M050C,faces/M050C.jpg,5.690020225,Trustworthy,Was hardworking and organized a group to renovate some run-down houses,hardworking,explicit,congruent,,,,,,,,,,0,33,33,10,,,left,2.6217776,,,,,,,,,4,33,2019_Oct_15_1056,trustSTIs,3.0.0b12,59.8831438
M031C,faces/M031C.jpg,5.921622915,Trustworthy,Went out of their way to ignore some new coworkers for several weeks,respectful,mismatch,incongruent,,,,,,,,,,0,34,34,7,,,left,2.170940999,,,,,,,,,4,33,2019_Oct_15_1056,trustSTIs,3.0.0b12,59.8831438
M071C,faces/M071C.jpg,5.923639075,Trustworthy,Got up early to drive a roommate to the airport,responsible,implicit,congruent,,,,,,,,,,0,35,35,14,,,right,1.803599,,,,,,,,,4,33,2019_Oct_15_1056,trustSTIs,3.0.0b12,59.8831438
,,,,,,,,,,,,,,,,,,,,,,,,,32,6.095,,,,,,,4,33,2019_Oct_15_1056,trustSTIs,3.0.0b12,59.8831438
,,,,,,,,,,,,,,,,,,,,,,,,,,,right,3.957560901,,,,,4,33,2019_Oct_15_1056,trustSTIs,3.0.0b12,59.8831438
,,,,,,,,,,,,,,,,,,,,,,,,,,,,,right,2.003986299,,,4,33,2019_Oct_15_1056,trustSTIs,3.0.0b12,59.8831438
,,,,,,,,,,,,,,,,,,,,,,,,,,,,,,,w,13.0076489,4,33,2019_Oct_15_1056,trustSTIs,3.0.0b12,59.8831438