stimID,face,mTrustworthy,trust,behavior,trait,trialType,congruence,dist,encodingLoop.thisRepN,encodingLoop.thisTrialN,encodingLoop.thisN,encodingLoop.thisIndex,distLoop.thisRepN,distLoop.thisTrialN,distLoop.thisN,distLoop.thisIndex,recognitionLoop.thisRepN,recognitionLoop.thisTrialN,recognitionLoop.thisN,recognitionLoop.thisIndex,distAnswers.keys,distAnswers.rt,keyResp.keys,keyResp.rt,ageRate.response,ageRate.rt,eflResp.keys,eflResp.rt,genderResp.keys,genderResp.rt,ethResp.keys,ethResp.rt,condition,participant,date,expName,psychopyVersion,frameRate
M093C,faces/M093C.jpg,6.071068575,Trustworthy,Visited a sick friend in the hospital,sexist,mismatch,congruent,,0,0,0,17,,,,,,,,,,,,,,,,,,,,,4,39,2019_Oct_15_1247,trustSTIs,3.0.0b12,59.89480077
M042C,faces/M042C.jpg,5.596522235,Trustworthy,Heckled a woman speaking on human rights,dependable,mismatch,incongruent,,0,1,1,8,,,,,,,,,,,,,,,,,,,,,4,39,2019_Oct_15_1247,trustSTIs,3.0.0b12,59.89480077
M076C,faces/M076C.jpg,4.724042295,Untrustworthy,Paid for a taxi to take an intoxicated man to his residence,giving,implicit,incongruent,,0,2,2,32,,,,,,,,,,,,,,,,,,,,,4,39,2019_Oct_15_1247,trustSTIs,3.0.0b12,59.89480077
M017C,faces/M017C.jpg,4.724042335,Untrustworthy,Was selfish and could not remember the birthdays of their family members,selfish,explicit,congruent,,0,3,3,19,,,,,,,,,,,,,,,,,,,,,4,39,2019_Oct_15_1247,trustSTIs,3.0.0b12,59.89480077
M014C,faces/M014C.jpg,5.649445575,Trustworthy,Ridiculed people behind their backs,unfair,implicit,incongruent,,0,4,4,3,,,,,,,,,,,,,,,,,,,,,4,39,2019_Oct_15_1247,trustSTIs,3.0.0b12,59.89480077
M021C,faces/M021C.jpg,4.828377083,Untrustworthy,Cheated on their spouse while on a business trip,dishonest,implicit,congruent,,0,5,5,22,,,,,,,,,,,,,,,,,,,,,4,39,2019_Oct_15_1247,trustSTIs,3.0.0b12,59.89480077
M004C,faces/M004C.jpg,6.470262,Trustworthy,Was greedy and stole money and jewelry from the relatives he was living with,greedy,explicit,incongruent,,0,6,6,0,,,,,,,,,,,,,,,,,,,,,4,39,2019_Oct_15_1247,trustSTIs,3.0.0b12,59.89480077
M077C,faces/M077C.jpg,6.415070475,Trustworthy,Gave up seat on the bus to a pregnant lady,callous,mismatch,congruent,,0,7,7,15,,,,,,,,,,,,,,,,,,,,,4,39,2019_Oct_15_1247,trustSTIs,3.0.0b12,59.89480077
M062C,faces/M062C.jpg,5.597530268,Trustworthy,Tutored a struggling classmate for free,generous,implicit,congruent,,0,8,8,13,,,,,,,,,,,,,,,,,,,,,4,39,2019_Oct_15_1247,trustSTIs,3.0.0b12,59.89480077
M081C,faces/M081C.jpg,4.350806448,Untrustworthy,Provided food and clothing for flood victims,untrustworthy,mismatch,incongruent,,0,9,9,33,,,,,,,,,,,,,,,,,,,,,4,39,2019_Oct_15_1247,trustSTIs,3.0.0b12,59.89480077
M092C,faces/M092C.jpg,4.779737903,Untrustworthy,Took care of their parent during an illness,cowardly,mismatch,incongruent,,0,10,10,35,,,,,,,,,,,,,,,,,,,,,4,39,2019_Oct_15_1247,trustSTIs,3.0.0b12,59.89480077
M013C,faces/M013C.jpg,6.035534283,Trustworthy,Was cruel and pushed a lost child out of their way and ignored her cries for help,cruel,explicit,incongruent,,0,11,11,2,,,,,,,,,,,,,,,,,,,,,4,39,2019_Oct_15_1247,trustSTIs,3.0.0b12,59.89480077
M026C,faces/M026C.jpg,5.823084825,Trustworthy,Took a ten-dollar bill from their roommate's dresser without asking,thieving,implicit,incongruent,,0,12,12,5,,,,,,,,,,,,,,,,,,,,,4,39,2019_Oct_15_1247,trustSTIs,3.0.0b12,59.89480077
M061C,faces/M061C.jpg,4.652721745,Untrustworthy,Was selfless and volunteered at children's hospital,selfless,explicit,incongruent,,0,13,13,27,,,,,,,,,,,,,,,,,,,,,4,39,2019_Oct_15_1247,trustSTIs,3.0.0b12,59.89480077
M022C,faces/M022C.jpg,5.7741936,Trustworthy,Cursed out a co-worker for their incompetence,demeaning,implicit,incongruent,,0,14,14,4,,,,,,,,,,,,,,,,,,,,,4,39,2019_Oct_15_1247,trustSTIs,3.0.0b12,59.89480077
M070C,faces/M070C.jpg,4.7144657,Untrustworthy,Saved a person from drowning,heroic,implicit,incongruent,,0,15,15,30,,,,,,,,,,,,,,,,,,,,,4,39,2019_Oct_15_1247,trustSTIs,3.0.0b12,59.89480077
M067C,faces/M067C.jpg,4.9541331,Untrustworthy,Was trustworthy and woke up a woman passed out on the subway and made sure that she got home safely,trustworthy,explicit,incongruent,,0,16,16,29,,,,,,,,,,,,,,,,,,,,,4,39,2019_Oct_15_1247,trustSTIs,3.0.0b12,59.89480077
M031C,faces/M031C.jpg,5.921622915,Trustworthy,Went out of their way to ignore some new coworkers for several weeks,respectful,mismatch,incongruent,,0,17,17,7,,,,,,,,,,,,,,,,,,,,,4,39,2019_Oct_15_1247,trustSTIs,3.0.0b12,59.89480077
M006C,faces/M006C.jpg,6.0640122,Trustworthy,Was immoral and attempted to rape a woman who was walking down a dark street,immoral,explicit,incongruent,,0,18,18,1,,,,,,,,,,,,,,,,,,,,,4,39,2019_Oct_15_1247,trustSTIs,3.0.0b12,59.89480077
M029C,faces/M029C.jpg,5.814516125,Trustworthy,Told a racist joke at a party,polite,mismatch,incongruent,,0,19,19,6,,,,,,,,,,,,,,,,,,,,,4,39,2019_Oct_15_1247,trustSTIs,3.0.0b12,59.89480077
M019C,faces/M019C.jpg,3.257056473,Untrustworthy,Was mean and swore at a cab driver and ran away without paying,mean,explicit,congruent,,0,20,20,20,,,,,,,,,,,,,,,,,,,,,4,39,2019_Oct_15_1247,trustSTIs,3.0.0b12,59.89480077
M066C,faces/M066C.jpg,4.707409208,Untrustworthy,Was caring and helped a man in a wheelchair cross a busy intersection,caring,explicit,incongruent,,0,21,21,28,,,,,,,,,,,,,,,,,,,,,4,39,2019_Oct_15_1247,trustSTIs,3.0.0b12,59.89480077
M050C,faces/M050C.jpg,5.690020225,Trustworthy,Was hardworking and organized a group to renovate some run-down houses,hardworking,explicit,congruent,,0,22,22,10,,,,,,,,,,,,,,,,,,,,,4,39,2019_Oct_15_1247,trustSTIs,3.0.0b12,59.89480077
M033C,faces/M033C.jpg,4.943548355,Untrustworthy,Insulted a stranger by making a racial slur,honest,mismatch,congruent,,0,23,23,25,,,,,,,,,,,,,,,,,,,,,4,39,2019_Oct_15_1247,trustSTIs,3.0.0b12,59.89480077
M032C,faces/M032C.jpg,4.74092746,Untrustworthy,Stole and used their mother's prescription medication,warm,mismatch,congruent,,0,24,24,24,,,,,,,,,,,,,,,,,,,,,4,39,2019_Oct_15_1247,trustSTIs,3.0.0b12,59.89480077
M008C,faces/M008C.jpg,4.033770203,Untrustworthy,Was careless and drove their car the wrong way down a one-way street,careless,explicit,congruent,,0,25,25,18,,,,,,,,,,,,,,,,,,,,,4,39,2019_Oct_15_1247,trustSTIs,3.0.0b12,59.89480077
M051C,faces/M051C.jpg,5.67212695,Trustworthy,Was attentive and kept the music down for their roommates,attentive,explicit,congruent,,0,26,26,11,,,,,,,,,,,,,,,,,,,,,4,39,2019_Oct_15_1247,trustSTIs,3.0.0b12,59.89480077
M072C,faces/M072C.jpg,4.8732359,Untrustworthy,Helped a lost child find his parents at a mall,kind,implicit,incongruent,,0,27,27,31,,,,,,,,,,,,,,,,,,,,,4,39,2019_Oct_15_1247,trustSTIs,3.0.0b12,59.89480077
M037C,faces/M037C.jpg,4.31502017,Untrustworthy,Hit a car and left the scene of the accident,compassionate,mismatch,congruent,,0,28,28,26,,,,,,,,,,,,,,,,,,,,,4,39,2019_Oct_15_1247,trustSTIs,3.0.0b12,59.89480077
M087C,faces/M087C.jpg,6.061491925,Trustworthy,Held the doors to the subway for an elderly woman with a walker,arrogant,mismatch,congruent,,0,29,29,16,,,,,,,,,,,,,,,,,,,,,4,39,2019_Oct_15_1247,trustSTIs,3.0.0b12,59.89480077
M086C,faces/M086C.jpg,4.845010075,Untrustworthy,Returned a lost wallet,insensitive,mismatch,incongruent,,0,30,30,34,,,,,,,,,,,,,,,,,,,,,4,39,2019_Oct_15_1247,trustSTIs,3.0.0b12,59.89480077
M020C,faces/M020C.jpg,4.750000023,Untrustworthy,Was very concerned about their personal appearance,vain,implicit,congruent,,0,31,31,21,,,,,,,,,,,,,,,,,,,,,4,39,2019_Oct_15_1247,trustSTIs,3.0.0b12,59.89480077
M071C,faces/M071C.jpg,5.923639075,Trustworthy,Got up early to drive a roommate to the airport,responsible,implicit,congruent,,0,32,32,14,,,,,,,,,,,,,,,,,,,,,4,39,2019_Oct_15_1247,trustSTIs,3.0.0b12,59.89480077
M058C,faces/M058C.jpg,6.1066028,Trustworthy,Paid a friend back the money they owed within only a few days,reliable,implicit,congruent,,0,33,33,12,,,,,,,,,,,,,,,,,,,,,4,39,2019_Oct_15_1247,trustSTIs,3.0.0b12,59.89480077
M049C,faces/M049C.jpg,6.053175375,Trustworthy,Was supportive and took a friend out for a beer to celebrate his promotion,supportive,explicit,congruent,,0,34,34,9,,,,,,,,,,,,,,,,,,,,,4,39,2019_Oct_15_1247,trustSTIs,3.0.0b12,59.89480077
M027C,faces/M027C.jpg,4.682963673,Untrustworthy,Ignored a man bleeding on the sidewalk,cold,implicit,congruent,,0,35,35,23,,,,,,,,,,,,,,,,,,,,,4,39,2019_Oct_15_1247,trustSTIs,3.0.0b12,59.89480077
,,,,,,,,(5 x 4) - 12 = ?,,,,,0,0,0,9,,,,,['space'],[14.410452399984933],,,,,,,,,,,4,39,2019_Oct_15_1247,trustSTIs,3.0.0b12,59.89480077
,,,,,,,,(24 ÷ 3) x 5 = ?,,,,,0,1,1,5,,,,,['space'],[8.298888699966483],,,,,,,,,,,4,39,2019_Oct_15_1247,trustSTIs,3.0.0b12,59.89480077
,,,,,,,,54 ÷ 9 = ?,,,,,0,2,2,4,,,,,['space'],[7.697838400024921],,,,,,,,,,,4,39,2019_Oct_15_1247,trustSTIs,3.0.0b12,59.89480077
,,,,,,,,6 * 9 = ?,,,,,0,3,3,2,,,,,['space'],[7.3806356999557465],,,,,,,,,,,4,39,2019_Oct_15_1247,trustSTIs,3.0.0b12,59.89480077
,,,,,,,,√49 x 7 = ?,,,,,0,4,4,6,,,,,['space'],[5.460107600025367],,,,,,,,,,,4,39,2019_Oct_15_1247,trustSTIs,3.0.0b12,59.89480077
,,,,,,,,7³ = ?,,,,,0,5,5,7,,,,,['space'],[3.523641799984034],,,,,,,,,,,4,39,2019_Oct_15_1247,trustSTIs,3.0.0b12,59.89480077
,,,,,,,,169 ÷ 13 = ?,,,,,0,6,6,8,,,,,['space'],[8.81658729998162],,,,,,,,,,,4,39,2019_Oct_15_1247,trustSTIs,3.0.0b12,59.89480077
,,,,,,,,3² = ?,,,,,0,7,7,0,,,,,['space'],[4.892492500017397],,,,,,,,,,,4,39,2019_Oct_15_1247,trustSTIs,3.0.0b12,59.89480077
,,,,,,,,√100 = ?,,,,,0,8,8,3,,,,,['space'],[2.7722168000182137],,,,,,,,,,,4,39,2019_Oct_15_1247,trustSTIs,3.0.0b12,59.89480077
,,,,,,,,(5 + 7) ÷ 4 = ?,,,,,0,9,9,1,,,,,['space'],[4.775605599978007],,,,,,,,,,,4,39,2019_Oct_15_1247,trustSTIs,3.0.0b12,59.89480077
M014C,faces/M014C.jpg,5.649445575,Trustworthy,Ridiculed people behind their backs,unfair,implicit,incongruent,,,,,,,,,,0,0,0,3,,,right,12.4565864,,,,,,,,,4,39,2019_Oct_15_1247,trustSTIs,3.0.0b12,59.89480077
M076C,faces/M076C.jpg,4.724042295,Untrustworthy,Paid for a taxi to take an intoxicated man to his residence,giving,implicit,incongruent,,,,,,,,,,0,1,1,32,,,right,6.211744,,,,,,,,,4,39,2019_Oct_15_1247,trustSTIs,3.0.0b12,59.89480077
M067C,faces/M067C.jpg,4.9541331,Untrustworthy,Was trustworthy and woke up a woman passed out on the subway and made sure that she got home safely,trustworthy,explicit,incongruent,,,,,,,,,,0,2,2,29,,,left,2.655181,,,,,,,,,4,39,2019_Oct_15_1247,trustSTIs,3.0.0b12,59.89480077
M004C,faces/M004C.jpg,6.470262,Trustworthy,Was greedy and stole money and jewelry from the relatives he was living with,greedy,explicit,incongruent,,,,,,,,,,0,3,3,0,,,left,3.556804,,,,,,,,,4,39,2019_Oct_15_1247,trustSTIs,3.0.0b12,59.89480077
M017C,faces/M017C.jpg,4.724042335,Untrustworthy,Was selfish and could not remember the birthdays of their family members,selfish,explicit,congruent,,,,,,,,,,0,4,4,19,,,left,2.4547792,,,,,,,,,4,39,2019_Oct_15_1247,trustSTIs,3.0.0b12,59.89480077
M049C,faces/M049C.jpg,6.053175375,Trustworthy,Was supportive and took a friend out for a beer to celebrate his promotion,supportive,explicit,congruent,,,,,,,,,,0,5,5,9,,,left,2.4211922,,,,,,,,,4,39,2019_Oct_15_1247,trustSTIs,3.0.0b12,59.89480077
M058C,faces/M058C.jpg,6.1066028,Trustworthy,Paid a friend back the money they owed within only a few days,reliable,implicit,congruent,,,,,,,,,,0,6,6,12,,,left,2.8054435,,,,,,,,,4,39,2019_Oct_15_1247,trustSTIs,3.0.0b12,59.89480077
M037C,faces/M037C.jpg,4.31502017,Untrustworthy,Hit a car and left the scene of the accident,compassionate,mismatch,congruent,,,,,,,,,,0,7,7,26,,,right,4.7757519,,,,,,,,,4,39,2019_Oct_15_1247,trustSTIs,3.0.0b12,59.89480077
M081C,faces/M081C.jpg,4.350806448,Untrustworthy,Provided food and clothing for flood victims,untrustworthy,mismatch,incongruent,,,,,,,,,,0,8,8,33,,,left,2.9556963,,,,,,,,,4,39,2019_Oct_15_1247,trustSTIs,3.0.0b12,59.89480077
M093C,faces/M093C.jpg,6.071068575,Trustworthy,Visited a sick friend in the hospital,sexist,mismatch,congruent,,,,,,,,,,0,9,9,17,,,right,2.98913,,,,,,,,,4,39,2019_Oct_15_1247,trustSTIs,3.0.0b12,59.89480077
M086C,faces/M086C.jpg,4.845010075,Untrustworthy,Returned a lost wallet,insensitive,mismatch,incongruent,,,,,,,,,,0,10,10,34,,,left,3.690398,,,,,,,,,4,39,2019_Oct_15_1247,trustSTIs,3.0.0b12,59.89480077
M021C,faces/M021C.jpg,4.828377083,Untrustworthy,Cheated on their spouse while on a business trip,dishonest,implicit,congruent,,,,,,,,,,0,11,11,22,,,right,6.1449553,,,,,,,,,4,39,2019_Oct_15_1247,trustSTIs,3.0.0b12,59.89480077
M008C,faces/M008C.jpg,4.033770203,Untrustworthy,Was careless and drove their car the wrong way down a one-way street,careless,explicit,congruent,,,,,,,,,,0,12,12,18,,,left,2.872232,,,,,,,,,4,39,2019_Oct_15_1247,trustSTIs,3.0.0b12,59.89480077
M032C,faces/M032C.jpg,4.74092746,Untrustworthy,Stole and used their mother's prescription medication,warm,mismatch,congruent,,,,,,,,,,0,13,13,24,,,right,1.8369602,,,,,,,,,4,39,2019_Oct_15_1247,trustSTIs,3.0.0b12,59.89480077
M020C,faces/M020C.jpg,4.750000023,Untrustworthy,Was very concerned about their personal appearance,vain,implicit,congruent,,,,,,,,,,0,14,14,21,,,right,1.5028893,,,,,,,,,4,39,2019_Oct_15_1247,trustSTIs,3.0.0b12,59.89480077
M070C,faces/M070C.jpg,4.7144657,Untrustworthy,Saved a person from drowning,heroic,implicit,incongruent,,,,,,,,,,0,15,15,30,,,left,2.7887356,,,,,,,,,4,39,2019_Oct_15_1247,trustSTIs,3.0.0b12,59.89480077
M061C,faces/M061C.jpg,4.652721745,Untrustworthy,Was selfless and volunteered at children's hospital,selfless,explicit,incongruent,,,,,,,,,,0,16,16,27,,,left,3.5734974,,,,,,,,,4,39,2019_Oct_15_1247,trustSTIs,3.0.0b12,59.89480077
M031C,faces/M031C.jpg,5.921622915,Trustworthy,Went out of their way to ignore some new coworkers for several weeks,respectful,mismatch,incongruent,,,,,,,,,,0,17,17,7,,,left,1.5699029,,,,,,,,,4,39,2019_Oct_15_1247,trustSTIs,3.0.0b12,59.89480077
M013C,faces/M013C.jpg,6.035534283,Trustworthy,Was cruel and pushed a lost child out of their way and ignored her cries for help,cruel,explicit,incongruent,,,,,,,,,,0,18,18,2,,,right,3.0892993,,,,,,,,,4,39,2019_Oct_15_1247,trustSTIs,3.0.0b12,59.89480077
M006C,faces/M006C.jpg,6.0640122,Trustworthy,Was immoral and attempted to rape a woman who was walking down a dark street,immoral,explicit,incongruent,,,,,,,,,,0,19,19,1,,,right,2.0874412,,,,,,,,,4,39,2019_Oct_15_1247,trustSTIs,3.0.0b12,59.89480077
M087C,faces/M087C.jpg,6.061491925,Trustworthy,Held the doors to the subway for an elderly woman with a walker,arrogant,mismatch,congruent,,,,,,,,,,0,20,20,16,,,right,2.7219516,,,,,,,,,4,39,2019_Oct_15_1247,trustSTIs,3.0.0b12,59.89480077
M072C,faces/M072C.jpg,4.8732359,Untrustworthy,Helped a lost child find his parents at a mall,kind,implicit,incongruent,,,,,,,,,,0,21,21,31,,,left,2.0540898,,,,,,,,,4,39,2019_Oct_15_1247,trustSTIs,3.0.0b12,59.89480077
M033C,faces/M033C.jpg,4.943548355,Untrustworthy,Insulted a stranger by making a racial slur,honest,mismatch,congruent,,,,,,,,,,0,22,22,25,,,left,2.9891487,,,,,,,,,4,39,2019_Oct_15_1247,trustSTIs,3.0.0b12,59.89480077
M066C,faces/M066C.jpg,4.707409208,Untrustworthy,Was caring and helped a man in a wheelchair cross a busy intersection,caring,explicit,incongruent,,,,,,,,,,0,23,23,28,,,left,2.2711078,,,,,,,,,4,39,2019_Oct_15_1247,trustSTIs,3.0.0b12,59.89480077
M051C,faces/M051C.jpg,5.67212695,Trustworthy,Was attentive and kept the music down for their roommates,attentive,explicit,congruent,,,,,,,,,,0,24,24,11,,,right,2.4881636,,,,,,,,,4,39,2019_Oct_15_1247,trustSTIs,3.0.0b12,59.89480077
M042C,faces/M042C.jpg,5.596522235,Trustworthy,Heckled a woman speaking on human rights,dependable,mismatch,incongruent,,,,,,,,,,0,25,25,8,,,left,1.4195915,,,,,,,,,4,39,2019_Oct_15_1247,trustSTIs,3.0.0b12,59.89480077
M050C,faces/M050C.jpg,5.690020225,Trustworthy,Was hardworking and organized a group to renovate some run-down houses,hardworking,explicit,congruent,,,,,,,,,,0,26,26,10,,,right,1.9204677,,,,,,,,,4,39,2019_Oct_15_1247,trustSTIs,3.0.0b12,59.89480077
M026C,faces/M026C.jpg,5.823084825,Trustworthy,Took a ten-dollar bill from their roommate's dresser without asking,thieving,implicit,incongruent,,,,,,,,,,0,27,27,5,,,right,1.7702251,,,,,,,,,4,39,2019_Oct_15_1247,trustSTIs,3.0.0b12,59.89480077
M019C,faces/M019C.jpg,3.257056473,Untrustworthy,Was mean and swore at a cab driver and ran away without paying,mean,explicit,congruent,,,,,,,,,,0,28,28,20,,,right,1.4863365,,,,,,,,,4,39,2019_Oct_15_1247,trustSTIs,3.0.0b12,59.89480077
M022C,faces/M022C.jpg,5.7741936,Trustworthy,Cursed out a co-worker for their incompetence,demeaning,implicit,incongruent,,,,,,,,,,0,29,29,4,,,left,2.3712854,,,,,,,,,4,39,2019_Oct_15_1247,trustSTIs,3.0.0b12,59.89480077
M029C,faces/M029C.jpg,5.814516125,Trustworthy,Told a racist joke at a party,polite,mismatch,incongruent,,,,,,,,,,0,30,30,6,,,right,2.0373843,,,,,,,,,4,39,2019_Oct_15_1247,trustSTIs,3.0.0b12,59.89480077
M027C,faces/M027C.jpg,4.682963673,Untrustworthy,Ignored a man bleeding on the sidewalk,cold,implicit,congruent,,,,,,,,,,0,31,31,23,,,right,2.0039767,,,,,,,,,4,39,2019_Oct_15_1247,trustSTIs,3.0.0b12,59.89480077
M062C,faces/M062C.jpg,5.597530268,Trustworthy,Tutored a struggling classmate for free,generous,implicit,congruent,,,,,,,,,,0,32,32,13,,,left,1.3193562,,,,,,,,,4,39,2019_Oct_15_1247,trustSTIs,3.0.0b12,59.89480077
M092C,faces/M092C.jpg,4.779737903,Untrustworthy,Took care of their parent during an illness,cowardly,mismatch,incongruent,,,,,,,,,,0,33,33,35,,,right,2.1542384,,,,,,,,,4,39,2019_Oct_15_1247,trustSTIs,3.0.0b12,59.89480077
M071C,faces/M071C.jpg,5.923639075,Trustworthy,Got up early to drive a roommate to the airport,responsible,implicit,congruent,,,,,,,,,,0,34,34,14,,,left,3.1726147,,,,,,,,,4,39,2019_Oct_15_1247,trustSTIs,3.0.0b12,59.89480077
M077C,faces/M077C.jpg,6.415070475,Trustworthy,Gave up seat on the bus to a pregnant lady,callous,mismatch,congruent,,,,,,,,,,0,35,35,15,,,left,2.6718665,,,,,,,,,4,39,2019_Oct_15_1247,trustSTIs,3.0.0b12,59.89480077
,,,,,,,,,,,,,,,,,,,,,,,,,21,21.323,,,,,,,4,39,2019_Oct_15_1247,trustSTIs,3.0.0b12,59.89480077
,,,,,,,,,,,,,,,,,,,,,,,,,,,left,5.5605303,,,,,4,39,2019_Oct_15_1247,trustSTIs,3.0.0b12,59.89480077
,,,,,,,,,,,,,,,,,,,,,,,,,,,,,left,8.0818716,,,4,39,2019_Oct_15_1247,trustSTIs,3.0.0b12,59.89480077
,,,,,,,,,,,,,,,,,,,,,,,,,,,,,,,b,5.5772567,4,39,2019_Oct_15_1247,trustSTIs,3.0.0b12,59.89480077