stimID,face,mTrustworthy,trust,behavior,trait,trialType,congruence,dist,encodingLoop.thisRepN,encodingLoop.thisTrialN,encodingLoop.thisN,encodingLoop.thisIndex,distLoop.thisRepN,distLoop.thisTrialN,distLoop.thisN,distLoop.thisIndex,recognitionLoop.thisRepN,recognitionLoop.thisTrialN,recognitionLoop.thisN,recognitionLoop.thisIndex,distAnswers.keys,distAnswers.rt,keyResp.keys,keyResp.rt,ageRate.response,ageRate.rt,eflResp.keys,eflResp.rt,genderResp.keys,genderResp.rt,ethResp.keys,ethResp.rt,condition,participant,date,expName,psychopyVersion,frameRate
M022C,faces/M022C.jpg,5.7741936,Trustworthy,Cursed out a co-worker for their incompetence,demeaning,implicit,incongruent,,0,0,0,4,,,,,,,,,,,,,,,,,,,,,4,51,2019_Oct_15_1607,trustSTIs,3.0.0b12,59.87342758
M062C,faces/M062C.jpg,5.597530268,Trustworthy,Tutored a struggling classmate for free,generous,implicit,congruent,,0,1,1,13,,,,,,,,,,,,,,,,,,,,,4,51,2019_Oct_15_1607,trustSTIs,3.0.0b12,59.87342758
M081C,faces/M081C.jpg,4.350806448,Untrustworthy,Provided food and clothing for flood victims,untrustworthy,mismatch,incongruent,,0,2,2,33,,,,,,,,,,,,,,,,,,,,,4,51,2019_Oct_15_1607,trustSTIs,3.0.0b12,59.87342758
M070C,faces/M070C.jpg,4.7144657,Untrustworthy,Saved a person from drowning,heroic,implicit,incongruent,,0,3,3,30,,,,,,,,,,,,,,,,,,,,,4,51,2019_Oct_15_1607,trustSTIs,3.0.0b12,59.87342758
M031C,faces/M031C.jpg,5.921622915,Trustworthy,Went out of their way to ignore some new coworkers for several weeks,respectful,mismatch,incongruent,,0,4,4,7,,,,,,,,,,,,,,,,,,,,,4,51,2019_Oct_15_1607,trustSTIs,3.0.0b12,59.87342758
M006C,faces/M006C.jpg,6.0640122,Trustworthy,Was immoral and attempted to rape a woman who was walking down a dark street,immoral,explicit,incongruent,,0,5,5,1,,,,,,,,,,,,,,,,,,,,,4,51,2019_Oct_15_1607,trustSTIs,3.0.0b12,59.87342758
M004C,faces/M004C.jpg,6.470262,Trustworthy,Was greedy and stole money and jewelry from the relatives he was living with,greedy,explicit,incongruent,,0,6,6,0,,,,,,,,,,,,,,,,,,,,,4,51,2019_Oct_15_1607,trustSTIs,3.0.0b12,59.87342758
M027C,faces/M027C.jpg,4.682963673,Untrustworthy,Ignored a man bleeding on the sidewalk,cold,implicit,congruent,,0,7,7,23,,,,,,,,,,,,,,,,,,,,,4,51,2019_Oct_15_1607,trustSTIs,3.0.0b12,59.87342758
M061C,faces/M061C.jpg,4.652721745,Untrustworthy,Was selfless and volunteered at children's hospital,selfless,explicit,incongruent,,0,8,8,27,,,,,,,,,,,,,,,,,,,,,4,51,2019_Oct_15_1607,trustSTIs,3.0.0b12,59.87342758
M033C,faces/M033C.jpg,4.943548355,Untrustworthy,Insulted a stranger by making a racial slur,honest,mismatch,congruent,,0,9,9,25,,,,,,,,,,,,,,,,,,,,,4,51,2019_Oct_15_1607,trustSTIs,3.0.0b12,59.87342758
M072C,faces/M072C.jpg,4.8732359,Untrustworthy,Helped a lost child find his parents at a mall,kind,implicit,incongruent,,0,10,10,31,,,,,,,,,,,,,,,,,,,,,4,51,2019_Oct_15_1607,trustSTIs,3.0.0b12,59.87342758
M037C,faces/M037C.jpg,4.31502017,Untrustworthy,Hit a car and left the scene of the accident,compassionate,mismatch,congruent,,0,11,11,26,,,,,,,,,,,,,,,,,,,,,4,51,2019_Oct_15_1607,trustSTIs,3.0.0b12,59.87342758
M087C,faces/M087C.jpg,6.061491925,Trustworthy,Held the doors to the subway for an elderly woman with a walker,arrogant,mismatch,congruent,,0,12,12,16,,,,,,,,,,,,,,,,,,,,,4,51,2019_Oct_15_1607,trustSTIs,3.0.0b12,59.87342758
M014C,faces/M014C.jpg,5.649445575,Trustworthy,Ridiculed people behind their backs,unfair,implicit,incongruent,,0,13,13,3,,,,,,,,,,,,,,,,,,,,,4,51,2019_Oct_15_1607,trustSTIs,3.0.0b12,59.87342758
M092C,faces/M092C.jpg,4.779737903,Untrustworthy,Took care of their parent during an illness,cowardly,mismatch,incongruent,,0,14,14,35,,,,,,,,,,,,,,,,,,,,,4,51,2019_Oct_15_1607,trustSTIs,3.0.0b12,59.87342758
M032C,faces/M032C.jpg,4.74092746,Untrustworthy,Stole and used their mother's prescription medication,warm,mismatch,congruent,,0,15,15,24,,,,,,,,,,,,,,,,,,,,,4,51,2019_Oct_15_1607,trustSTIs,3.0.0b12,59.87342758
M020C,faces/M020C.jpg,4.750000023,Untrustworthy,Was very concerned about their personal appearance,vain,implicit,congruent,,0,16,16,21,,,,,,,,,,,,,,,,,,,,,4,51,2019_Oct_15_1607,trustSTIs,3.0.0b12,59.87342758
M071C,faces/M071C.jpg,5.923639075,Trustworthy,Got up early to drive a roommate to the airport,responsible,implicit,congruent,,0,17,17,14,,,,,,,,,,,,,,,,,,,,,4,51,2019_Oct_15_1607,trustSTIs,3.0.0b12,59.87342758
M067C,faces/M067C.jpg,4.9541331,Untrustworthy,Was trustworthy and woke up a woman passed out on the subway and made sure that she got home safely,trustworthy,explicit,incongruent,,0,18,18,29,,,,,,,,,,,,,,,,,,,,,4,51,2019_Oct_15_1607,trustSTIs,3.0.0b12,59.87342758
M042C,faces/M042C.jpg,5.596522235,Trustworthy,Heckled a woman speaking on human rights,dependable,mismatch,incongruent,,0,19,19,8,,,,,,,,,,,,,,,,,,,,,4,51,2019_Oct_15_1607,trustSTIs,3.0.0b12,59.87342758
M008C,faces/M008C.jpg,4.033770203,Untrustworthy,Was careless and drove their car the wrong way down a one-way street,careless,explicit,congruent,,0,20,20,18,,,,,,,,,,,,,,,,,,,,,4,51,2019_Oct_15_1607,trustSTIs,3.0.0b12,59.87342758
M017C,faces/M017C.jpg,4.724042335,Untrustworthy,Was selfish and could not remember the birthdays of their family members,selfish,explicit,congruent,,0,21,21,19,,,,,,,,,,,,,,,,,,,,,4,51,2019_Oct_15_1607,trustSTIs,3.0.0b12,59.87342758
M077C,faces/M077C.jpg,6.415070475,Trustworthy,Gave up seat on the bus to a pregnant lady,callous,mismatch,congruent,,0,22,22,15,,,,,,,,,,,,,,,,,,,,,4,51,2019_Oct_15_1607,trustSTIs,3.0.0b12,59.87342758
M019C,faces/M019C.jpg,3.257056473,Untrustworthy,Was mean and swore at a cab driver and ran away without paying,mean,explicit,congruent,,0,23,23,20,,,,,,,,,,,,,,,,,,,,,4,51,2019_Oct_15_1607,trustSTIs,3.0.0b12,59.87342758
M021C,faces/M021C.jpg,4.828377083,Untrustworthy,Cheated on their spouse while on a business trip,dishonest,implicit,congruent,,0,24,24,22,,,,,,,,,,,,,,,,,,,,,4,51,2019_Oct_15_1607,trustSTIs,3.0.0b12,59.87342758
M051C,faces/M051C.jpg,5.67212695,Trustworthy,Was attentive and kept the music down for their roommates,attentive,explicit,congruent,,0,25,25,11,,,,,,,,,,,,,,,,,,,,,4,51,2019_Oct_15_1607,trustSTIs,3.0.0b12,59.87342758
M066C,faces/M066C.jpg,4.707409208,Untrustworthy,Was caring and helped a man in a wheelchair cross a busy intersection,caring,explicit,incongruent,,0,26,26,28,,,,,,,,,,,,,,,,,,,,,4,51,2019_Oct_15_1607,trustSTIs,3.0.0b12,59.87342758
M086C,faces/M086C.jpg,4.845010075,Untrustworthy,Returned a lost wallet,insensitive,mismatch,incongruent,,0,27,27,34,,,,,,,,,,,,,,,,,,,,,4,51,2019_Oct_15_1607,trustSTIs,3.0.0b12,59.87342758
M093C,faces/M093C.jpg,6.071068575,Trustworthy,Visited a sick friend in the hospital,sexist,mismatch,congruent,,0,28,28,17,,,,,,,,,,,,,,,,,,,,,4,51,2019_Oct_15_1607,trustSTIs,3.0.0b12,59.87342758
M026C,faces/M026C.jpg,5.823084825,Trustworthy,Took a ten-dollar bill from their roommate's dresser without asking,thieving,implicit,incongruent,,0,29,29,5,,,,,,,,,,,,,,,,,,,,,4,51,2019_Oct_15_1607,trustSTIs,3.0.0b12,59.87342758
M013C,faces/M013C.jpg,6.035534283,Trustworthy,Was cruel and pushed a lost child out of their way and ignored her cries for help,cruel,explicit,incongruent,,0,30,30,2,,,,,,,,,,,,,,,,,,,,,4,51,2019_Oct_15_1607,trustSTIs,3.0.0b12,59.87342758
M029C,faces/M029C.jpg,5.814516125,Trustworthy,Told a racist joke at a party,polite,mismatch,incongruent,,0,31,31,6,,,,,,,,,,,,,,,,,,,,,4,51,2019_Oct_15_1607,trustSTIs,3.0.0b12,59.87342758
M049C,faces/M049C.jpg,6.053175375,Trustworthy,Was supportive and took a friend out for a beer to celebrate his promotion,supportive,explicit,congruent,,0,32,32,9,,,,,,,,,,,,,,,,,,,,,4,51,2019_Oct_15_1607,trustSTIs,3.0.0b12,59.87342758
M076C,faces/M076C.jpg,4.724042295,Untrustworthy,Paid for a taxi to take an intoxicated man to his residence,giving,implicit,incongruent,,0,33,33,32,,,,,,,,,,,,,,,,,,,,,4,51,2019_Oct_15_1607,trustSTIs,3.0.0b12,59.87342758
M058C,faces/M058C.jpg,6.1066028,Trustworthy,Paid a friend back the money they owed within only a few days,reliable,implicit,congruent,,0,34,34,12,,,,,,,,,,,,,,,,,,,,,4,51,2019_Oct_15_1607,trustSTIs,3.0.0b12,59.87342758
M050C,faces/M050C.jpg,5.690020225,Trustworthy,Was hardworking and organized a group to renovate some run-down houses,hardworking,explicit,congruent,,0,35,35,10,,,,,,,,,,,,,,,,,,,,,4,51,2019_Oct_15_1607,trustSTIs,3.0.0b12,59.87342758
,,,,,,,,√49 x 7 = ?,,,,,0,0,0,6,,,,,['space'],[16.915035200014245],,,,,,,,,,,4,51,2019_Oct_15_1607,trustSTIs,3.0.0b12,59.87342758
,,,,,,,,6 * 9 = ?,,,,,0,1,1,2,,,,,['space'],[5.00937529996736],,,,,,,,,,,4,51,2019_Oct_15_1607,trustSTIs,3.0.0b12,59.87342758
,,,,,,,,(5 x 4) - 12 = ?,,,,,0,2,2,9,,,,,['space'],[2.8390324999927543],,,,,,,,,,,4,51,2019_Oct_15_1607,trustSTIs,3.0.0b12,59.87342758
,,,,,,,,3² = ?,,,,,0,3,3,0,,,,,['space'],[1.9369951999979094],,,,,,,,,,,4,51,2019_Oct_15_1607,trustSTIs,3.0.0b12,59.87342758
,,,,,,,,7³ = ?,,,,,0,4,4,7,,,,,['space'],[44.16545650002081],,,,,,,,,,,4,51,2019_Oct_15_1607,trustSTIs,3.0.0b12,59.87342758
,,,,,,,,169 ÷ 13 = ?,,,,,0,5,5,8,,,,,['space'],[5.577070800005458],,,,,,,,,,,4,51,2019_Oct_15_1607,trustSTIs,3.0.0b12,59.87342758
,,,,,,,,(24 ÷ 3) x 5 = ?,,,,,0,6,6,5,,,,,['space'],[2.2546432000235654],,,,,,,,,,,4,51,2019_Oct_15_1607,trustSTIs,3.0.0b12,59.87342758
,,,,,,,,(5 + 7) ÷ 4 = ?,,,,,0,7,7,1,,,,,['space'],[3.1558391000144184],,,,,,,,,,,4,51,2019_Oct_15_1607,trustSTIs,3.0.0b12,59.87342758
,,,,,,,,54 ÷ 9 = ?,,,,,0,8,8,4,,,,,['space'],[2.4717034000204876],,,,,,,,,,,4,51,2019_Oct_15_1607,trustSTIs,3.0.0b12,59.87342758
,,,,,,,,√100 = ?,,,,,0,9,9,3,,,,,['space'],[1.235619199986104],,,,,,,,,,,4,51,2019_Oct_15_1607,trustSTIs,3.0.0b12,59.87342758
M032C,faces/M032C.jpg,4.74092746,Untrustworthy,Stole and used their mother's prescription medication,warm,mismatch,congruent,,,,,,,,,,0,0,0,24,,,right,9.250719,,,,,,,,,4,51,2019_Oct_15_1607,trustSTIs,3.0.0b12,59.87342758
M071C,faces/M071C.jpg,5.923639075,Trustworthy,Got up early to drive a roommate to the airport,responsible,implicit,congruent,,,,,,,,,,0,1,1,14,,,left,8.1653474,,,,,,,,,4,51,2019_Oct_15_1607,trustSTIs,3.0.0b12,59.87342758
M062C,faces/M062C.jpg,5.597530268,Trustworthy,Tutored a struggling classmate for free,generous,implicit,congruent,,,,,,,,,,0,2,2,13,,,left,5.1097141,,,,,,,,,4,51,2019_Oct_15_1607,trustSTIs,3.0.0b12,59.87342758
M092C,faces/M092C.jpg,4.779737903,Untrustworthy,Took care of their parent during an illness,cowardly,mismatch,incongruent,,,,,,,,,,0,3,3,35,,,right,2.5216119,,,,,,,,,4,51,2019_Oct_15_1607,trustSTIs,3.0.0b12,59.87342758
M021C,faces/M021C.jpg,4.828377083,Untrustworthy,Cheated on their spouse while on a business trip,dishonest,implicit,congruent,,,,,,,,,,0,4,4,22,,,left,4.9427208,,,,,,,,,4,51,2019_Oct_15_1607,trustSTIs,3.0.0b12,59.87342758
M020C,faces/M020C.jpg,4.750000023,Untrustworthy,Was very concerned about their personal appearance,vain,implicit,congruent,,,,,,,,,,0,5,5,21,,,right,3.2062157,,,,,,,,,4,51,2019_Oct_15_1607,trustSTIs,3.0.0b12,59.87342758
M077C,faces/M077C.jpg,6.415070475,Trustworthy,Gave up seat on the bus to a pregnant lady,callous,mismatch,congruent,,,,,,,,,,0,6,6,15,,,right,4.6588298,,,,,,,,,4,51,2019_Oct_15_1607,trustSTIs,3.0.0b12,59.87342758
M042C,faces/M042C.jpg,5.596522235,Trustworthy,Heckled a woman speaking on human rights,dependable,mismatch,incongruent,,,,,,,,,,0,7,7,8,,,right,2.421445,,,,,,,,,4,51,2019_Oct_15_1607,trustSTIs,3.0.0b12,59.87342758
M081C,faces/M081C.jpg,4.350806448,Untrustworthy,Provided food and clothing for flood victims,untrustworthy,mismatch,incongruent,,,,,,,,,,0,8,8,33,,,right,2.6718359,,,,,,,,,4,51,2019_Oct_15_1607,trustSTIs,3.0.0b12,59.87342758
M014C,faces/M014C.jpg,5.649445575,Trustworthy,Ridiculed people behind their backs,unfair,implicit,incongruent,,,,,,,,,,0,9,9,3,,,right,6.0614445,,,,,,,,,4,51,2019_Oct_15_1607,trustSTIs,3.0.0b12,59.87342758
M051C,faces/M051C.jpg,5.67212695,Trustworthy,Was attentive and kept the music down for their roommates,attentive,explicit,congruent,,,,,,,,,,0,10,10,11,,,right,5.0428877,,,,,,,,,4,51,2019_Oct_15_1607,trustSTIs,3.0.0b12,59.87342758
M006C,faces/M006C.jpg,6.0640122,Trustworthy,Was immoral and attempted to rape a woman who was walking down a dark street,immoral,explicit,incongruent,,,,,,,,,,0,11,11,1,,,right,2.5216154,,,,,,,,,4,51,2019_Oct_15_1607,trustSTIs,3.0.0b12,59.87342758
M037C,faces/M037C.jpg,4.31502017,Untrustworthy,Hit a car and left the scene of the accident,compassionate,mismatch,congruent,,,,,,,,,,0,12,12,26,,,left,3.3898581,,,,,,,,,4,51,2019_Oct_15_1607,trustSTIs,3.0.0b12,59.87342758
M058C,faces/M058C.jpg,6.1066028,Trustworthy,Paid a friend back the money they owed within only a few days,reliable,implicit,congruent,,,,,,,,,,0,13,13,12,,,left,4.191366,,,,,,,,,4,51,2019_Oct_15_1607,trustSTIs,3.0.0b12,59.87342758
M031C,faces/M031C.jpg,5.921622915,Trustworthy,Went out of their way to ignore some new coworkers for several weeks,respectful,mismatch,incongruent,,,,,,,,,,0,14,14,7,,,right,2.7052312,,,,,,,,,4,51,2019_Oct_15_1607,trustSTIs,3.0.0b12,59.87342758
M087C,faces/M087C.jpg,6.061491925,Trustworthy,Held the doors to the subway for an elderly woman with a walker,arrogant,mismatch,congruent,,,,,,,,,,0,15,15,16,,,left,2.9891342,,,,,,,,,4,51,2019_Oct_15_1607,trustSTIs,3.0.0b12,59.87342758
M022C,faces/M022C.jpg,5.7741936,Trustworthy,Cursed out a co-worker for their incompetence,demeaning,implicit,incongruent,,,,,,,,,,0,16,16,4,,,right,3.85741,,,,,,,,,4,51,2019_Oct_15_1607,trustSTIs,3.0.0b12,59.87342758
M072C,faces/M072C.jpg,4.8732359,Untrustworthy,Helped a lost child find his parents at a mall,kind,implicit,incongruent,,,,,,,,,,0,17,17,31,,,right,3.406564,,,,,,,,,4,51,2019_Oct_15_1607,trustSTIs,3.0.0b12,59.87342758
M061C,faces/M061C.jpg,4.652721745,Untrustworthy,Was selfless and volunteered at children's hospital,selfless,explicit,incongruent,,,,,,,,,,0,18,18,27,,,left,2.6050482,,,,,,,,,4,51,2019_Oct_15_1607,trustSTIs,3.0.0b12,59.87342758
M026C,faces/M026C.jpg,5.823084825,Trustworthy,Took a ten-dollar bill from their roommate's dresser without asking,thieving,implicit,incongruent,,,,,,,,,,0,19,19,5,,,left,2.4714918,,,,,,,,,4,51,2019_Oct_15_1607,trustSTIs,3.0.0b12,59.87342758
M050C,faces/M050C.jpg,5.690020225,Trustworthy,Was hardworking and organized a group to renovate some run-down houses,hardworking,explicit,congruent,,,,,,,,,,0,20,20,10,,,left,2.688533,,,,,,,,,4,51,2019_Oct_15_1607,trustSTIs,3.0.0b12,59.87342758
M008C,faces/M008C.jpg,4.033770203,Untrustworthy,Was careless and drove their car the wrong way down a one-way street,careless,explicit,congruent,,,,,,,,,,0,21,21,18,,,right,3.339832,,,,,,,,,4,51,2019_Oct_15_1607,trustSTIs,3.0.0b12,59.87342758
M086C,faces/M086C.jpg,4.845010075,Untrustworthy,Returned a lost wallet,insensitive,mismatch,incongruent,,,,,,,,,,0,22,22,34,,,left,8.8332393,,,,,,,,,4,51,2019_Oct_15_1607,trustSTIs,3.0.0b12,59.87342758
M067C,faces/M067C.jpg,4.9541331,Untrustworthy,Was trustworthy and woke up a woman passed out on the subway and made sure that she got home safely,trustworthy,explicit,incongruent,,,,,,,,,,0,23,23,29,,,left,2.905655,,,,,,,,,4,51,2019_Oct_15_1607,trustSTIs,3.0.0b12,59.87342758
M027C,faces/M027C.jpg,4.682963673,Untrustworthy,Ignored a man bleeding on the sidewalk,cold,implicit,congruent,,,,,,,,,,0,24,24,23,,,right,3.0725784,,,,,,,,,4,51,2019_Oct_15_1607,trustSTIs,3.0.0b12,59.87342758
M029C,faces/M029C.jpg,5.814516125,Trustworthy,Told a racist joke at a party,polite,mismatch,incongruent,,,,,,,,,,0,25,25,6,,,right,1.6365957,,,,,,,,,4,51,2019_Oct_15_1607,trustSTIs,3.0.0b12,59.87342758
M070C,faces/M070C.jpg,4.7144657,Untrustworthy,Saved a person from drowning,heroic,implicit,incongruent,,,,,,,,,,0,26,26,30,,,left,1.7367815,,,,,,,,,4,51,2019_Oct_15_1607,trustSTIs,3.0.0b12,59.87342758
M019C,faces/M019C.jpg,3.257056473,Untrustworthy,Was mean and swore at a cab driver and ran away without paying,mean,explicit,congruent,,,,,,,,,,0,27,27,20,,,left,4.6421227,,,,,,,,,4,51,2019_Oct_15_1607,trustSTIs,3.0.0b12,59.87342758
M017C,faces/M017C.jpg,4.724042335,Untrustworthy,Was selfish and could not remember the birthdays of their family members,selfish,explicit,congruent,,,,,,,,,,0,28,28,19,,,right,4.7089396,,,,,,,,,4,51,2019_Oct_15_1607,trustSTIs,3.0.0b12,59.87342758
M049C,faces/M049C.jpg,6.053175375,Trustworthy,Was supportive and took a friend out for a beer to celebrate his promotion,supportive,explicit,congruent,,,,,,,,,,0,29,29,9,,,left,2.0707213,,,,,,,,,4,51,2019_Oct_15_1607,trustSTIs,3.0.0b12,59.87342758
M013C,faces/M013C.jpg,6.035534283,Trustworthy,Was cruel and pushed a lost child out of their way and ignored her cries for help,cruel,explicit,incongruent,,,,,,,,,,0,30,30,2,,,right,1.9705961,,,,,,,,,4,51,2019_Oct_15_1607,trustSTIs,3.0.0b12,59.87342758
M004C,faces/M004C.jpg,6.470262,Trustworthy,Was greedy and stole money and jewelry from the relatives he was living with,greedy,explicit,incongruent,,,,,,,,,,0,31,31,0,,,right,3.8239612,,,,,,,,,4,51,2019_Oct_15_1607,trustSTIs,3.0.0b12,59.87342758
M076C,faces/M076C.jpg,4.724042295,Untrustworthy,Paid for a taxi to take an intoxicated man to his residence,giving,implicit,incongruent,,,,,,,,,,0,32,32,32,,,right,2.8555569,,,,,,,,,4,51,2019_Oct_15_1607,trustSTIs,3.0.0b12,59.87342758
M066C,faces/M066C.jpg,4.707409208,Untrustworthy,Was caring and helped a man in a wheelchair cross a busy intersection,caring,explicit,incongruent,,,,,,,,,,0,33,33,28,,,left,2.5716635,,,,,,,,,4,51,2019_Oct_15_1607,trustSTIs,3.0.0b12,59.87342758
M093C,faces/M093C.jpg,6.071068575,Trustworthy,Visited a sick friend in the hospital,sexist,mismatch,congruent,,,,,,,,,,0,34,34,17,,,right,4.658944,,,,,,,,,4,51,2019_Oct_15_1607,trustSTIs,3.0.0b12,59.87342758
M033C,faces/M033C.jpg,4.943548355,Untrustworthy,Insulted a stranger by making a racial slur,honest,mismatch,congruent,,,,,,,,,,0,35,35,25,,,right,3.2228843,,,,,,,,,4,51,2019_Oct_15_1607,trustSTIs,3.0.0b12,59.87342758
,,,,,,,,,,,,,,,,,,,,,,,,,20,10.77,,,,,,,4,51,2019_Oct_15_1607,trustSTIs,3.0.0b12,59.87342758
,,,,,,,,,,,,,,,,,,,,,,,,,,,left,3.1729849,,,,,4,51,2019_Oct_15_1607,trustSTIs,3.0.0b12,59.87342758
,,,,,,,,,,,,,,,,,,,,,,,,,,,,,left,4.0577226,,,4,51,2019_Oct_15_1607,trustSTIs,3.0.0b12,59.87342758
,,,,,,,,,,,,,,,,,,,,,,,,,,,,,,,a,1.9873274,4,51,2019_Oct_15_1607,trustSTIs,3.0.0b12,59.87342758