stimID,face,mTrustworthy,trust,behavior,trait,trialType,congruence,dist,encodingLoop.thisRepN,encodingLoop.thisTrialN,encodingLoop.thisN,encodingLoop.thisIndex,distLoop.thisRepN,distLoop.thisTrialN,distLoop.thisN,distLoop.thisIndex,recognitionLoop.thisRepN,recognitionLoop.thisTrialN,recognitionLoop.thisN,recognitionLoop.thisIndex,distAnswers.keys,distAnswers.rt,keyResp.keys,keyResp.rt,ageRate.response,ageRate.rt,eflResp.keys,eflResp.rt,genderResp.keys,genderResp.rt,ethResp.keys,ethResp.rt,condition,participant,date,expName,psychopyVersion,frameRate,
M076C,faces/M076C.jpg,4.724042295,Untrustworthy,Paid for a taxi to take an intoxicated man to his residence,cold,mismatch,incongruent,,0,0,0,32,,,,,,,,,,,,,,,,,,,,,6,053,2019_Oct_16_1126,trustSTIs,3.0.0b12,59.91819924683129,
M071C,faces/M071C.jpg,5.923639075,Trustworthy,Got up early to drive a roommate to the airport,thieving,mismatch,congruent,,0,1,1,14,,,,,,,,,,,,,,,,,,,,,6,053,2019_Oct_16_1126,trustSTIs,3.0.0b12,59.91819924683129,
M070C,faces/M070C.jpg,4.7144657,Untrustworthy,Saved a person from drowning,vain,mismatch,incongruent,,0,2,2,30,,,,,,,,,,,,,,,,,,,,,6,053,2019_Oct_16_1126,trustSTIs,3.0.0b12,59.91819924683129,
M006C,faces/M006C.jpg,6.0640122,Trustworthy,Attempted to rape a woman who was walking down a dark street,immoral,implicit,incongruent,,0,3,3,1,,,,,,,,,,,,,,,,,,,,,6,053,2019_Oct_16_1126,trustSTIs,3.0.0b12,59.91819924683129,
M061C,faces/M061C.jpg,4.652721745,Untrustworthy,Volunteered at children's hospital,selfless,implicit,incongruent,,0,4,4,27,,,,,,,,,,,,,,,,,,,,,6,053,2019_Oct_16_1126,trustSTIs,3.0.0b12,59.91819924683129,
M029C,faces/M029C.jpg,5.814516125,Trustworthy,Was callous and told a racist joke at a party,callous,explicit,incongruent,,0,5,5,6,,,,,,,,,,,,,,,,,,,,,6,053,2019_Oct_16_1126,trustSTIs,3.0.0b12,59.91819924683129,
M037C,faces/M037C.jpg,4.31502017,Untrustworthy,Was cowardly and hit a car and left the scene of the accident,cowardly,explicit,congruent,,0,6,6,26,,,,,,,,,,,,,,,,,,,,,6,053,2019_Oct_16_1126,trustSTIs,3.0.0b12,59.91819924683129,
M017C,faces/M017C.jpg,4.724042335,Untrustworthy,Could not remember the birthdays of their family members,selfish,implicit,congruent,,0,7,7,19,,,,,,,,,,,,,,,,,,,,,6,053,2019_Oct_16_1126,trustSTIs,3.0.0b12,59.91819924683129,
M027C,faces/M027C.jpg,4.682963673,Untrustworthy,Ignored a man bleeding on the sidewalk,giving,mismatch,congruent,,0,8,8,23,,,,,,,,,,,,,,,,,,,,,6,053,2019_Oct_16_1126,trustSTIs,3.0.0b12,59.91819924683129,
M062C,faces/M062C.jpg,5.597530268,Trustworthy,Tutored a struggling classmate for free,demeaning,mismatch,congruent,,0,9,9,13,,,,,,,,,,,,,,,,,,,,,6,053,2019_Oct_16_1126,trustSTIs,3.0.0b12,59.91819924683129,
M049C,faces/M049C.jpg,6.053175375,Trustworthy,Took a friend out for a beer to celebrate his promotion,supportive,implicit,congruent,,0,10,10,9,,,,,,,,,,,,,,,,,,,,,6,053,2019_Oct_16_1126,trustSTIs,3.0.0b12,59.91819924683129,
M004C,faces/M004C.jpg,6.470262,Trustworthy,Stole money and jewelry from the relatives he was living with,greedy,implicit,incongruent,,0,11,11,0,,,,,,,,,,,,,,,,,,,,,6,053,2019_Oct_16_1126,trustSTIs,3.0.0b12,59.91819924683129,
M033C,faces/M033C.jpg,4.943548355,Untrustworthy,Was insensitive and insulted a stranger by making a racial slur,insensitive,explicit,congruent,,0,12,12,25,,,,,,,,,,,,,,,,,,,,,6,053,2019_Oct_16_1126,trustSTIs,3.0.0b12,59.91819924683129,
M086C,faces/M086C.jpg,4.845010075,Untrustworthy,Was honest and returned a lost wallet,honest,explicit,incongruent,,0,13,13,34,,,,,,,,,,,,,,,,,,,,,6,053,2019_Oct_16_1126,trustSTIs,3.0.0b12,59.91819924683129,
M050C,faces/M050C.jpg,5.690020225,Trustworthy,Organized a group to renovate some run-down houses,hardworking,implicit,congruent,,0,14,14,10,,,,,,,,,,,,,,,,,,,,,6,053,2019_Oct_16_1126,trustSTIs,3.0.0b12,59.91819924683129,
M072C,faces/M072C.jpg,4.8732359,Untrustworthy,Helped a lost child find his parents at a mall,dishonest,mismatch,incongruent,,0,15,15,31,,,,,,,,,,,,,,,,,,,,,6,053,2019_Oct_16_1126,trustSTIs,3.0.0b12,59.91819924683129,
M013C,faces/M013C.jpg,6.035534283,Trustworthy,Pushed a lost child out of their way and ignored her cries for help,cruel,implicit,incongruent,,0,16,16,2,,,,,,,,,,,,,,,,,,,,,6,053,2019_Oct_16_1126,trustSTIs,3.0.0b12,59.91819924683129,
M031C,faces/M031C.jpg,5.921622915,Trustworthy,Was arrogant and went out of their way to ignore some new coworkers for several weeks,arrogant,explicit,incongruent,,0,17,17,7,,,,,,,,,,,,,,,,,,,,,6,053,2019_Oct_16_1126,trustSTIs,3.0.0b12,59.91819924683129,
M021C,faces/M021C.jpg,4.828377083,Untrustworthy,Cheated on their spouse while on a business trip,kind,mismatch,congruent,,0,18,18,22,,,,,,,,,,,,,,,,,,,,,6,053,2019_Oct_16_1126,trustSTIs,3.0.0b12,59.91819924683129,
M051C,faces/M051C.jpg,5.67212695,Trustworthy,Kept the music down for their roommates,attentive,implicit,congruent,,0,19,19,11,,,,,,,,,,,,,,,,,,,,,6,053,2019_Oct_16_1126,trustSTIs,3.0.0b12,59.91819924683129,
M014C,faces/M014C.jpg,5.649445575,Trustworthy,Ridiculed people behind their backs,reliable,mismatch,incongruent,,0,20,20,3,,,,,,,,,,,,,,,,,,,,,6,053,2019_Oct_16_1126,trustSTIs,3.0.0b12,59.91819924683129,
M092C,faces/M092C.jpg,4.779737903,Untrustworthy,Was compassionate took care of their parent during an illness,compassionate,explicit,incongruent,,0,21,21,35,,,,,,,,,,,,,,,,,,,,,6,053,2019_Oct_16_1126,trustSTIs,3.0.0b12,59.91819924683129,
M042C,faces/M042C.jpg,5.596522235,Trustworthy,Was sexist and heckled a woman speaking on human rights,sexist,explicit,incongruent,,0,22,22,8,,,,,,,,,,,,,,,,,,,,,6,053,2019_Oct_16_1126,trustSTIs,3.0.0b12,59.91819924683129,
M026C,faces/M026C.jpg,5.823084825,Trustworthy,Took a ten-dollar bill from their roommate's dresser without asking,responsible,mismatch,incongruent,,0,23,23,5,,,,,,,,,,,,,,,,,,,,,6,053,2019_Oct_16_1126,trustSTIs,3.0.0b12,59.91819924683129,
M020C,faces/M020C.jpg,4.750000023,Untrustworthy,Was very concerned about their personal appearance,heroic,mismatch,congruent,,0,24,24,21,,,,,,,,,,,,,,,,,,,,,6,053,2019_Oct_16_1126,trustSTIs,3.0.0b12,59.91819924683129,
M032C,faces/M032C.jpg,4.74092746,Untrustworthy,Was untrustworthy and stole and used their mother's prescription medication,untrustworthy,explicit,congruent,,0,25,25,24,,,,,,,,,,,,,,,,,,,,,6,053,2019_Oct_16_1126,trustSTIs,3.0.0b12,59.91819924683129,
M077C,faces/M077C.jpg,6.415070475,Trustworthy,Was polite and gave up seat on the bus to a pregnant lady,polite,explicit,congruent,,0,26,26,15,,,,,,,,,,,,,,,,,,,,,6,053,2019_Oct_16_1126,trustSTIs,3.0.0b12,59.91819924683129,
M058C,faces/M058C.jpg,6.1066028,Trustworthy,Paid a friend back the money they owed within only a few days,unfair,mismatch,congruent,,0,27,27,12,,,,,,,,,,,,,,,,,,,,,6,053,2019_Oct_16_1126,trustSTIs,3.0.0b12,59.91819924683129,
M019C,faces/M019C.jpg,3.257056473,Untrustworthy,Swore at a cab driver and ran away without paying,mean,implicit,congruent,,0,28,28,20,,,,,,,,,,,,,,,,,,,,,6,053,2019_Oct_16_1126,trustSTIs,3.0.0b12,59.91819924683129,
M008C,faces/M008C.jpg,4.033770203,Untrustworthy,Drove their car the wrong way down a one-way street,careless,implicit,congruent,,0,29,29,18,,,,,,,,,,,,,,,,,,,,,6,053,2019_Oct_16_1126,trustSTIs,3.0.0b12,59.91819924683129,
M093C,faces/M093C.jpg,6.071068575,Trustworthy,Was dependable and visited a sick friend in the hospital,dependable,explicit,congruent,,0,30,30,17,,,,,,,,,,,,,,,,,,,,,6,053,2019_Oct_16_1126,trustSTIs,3.0.0b12,59.91819924683129,
M087C,faces/M087C.jpg,6.061491925,Trustworthy,Was respectful and held the doors to the subway for an elderly woman with a walker,respectful,explicit,congruent,,0,31,31,16,,,,,,,,,,,,,,,,,,,,,6,053,2019_Oct_16_1126,trustSTIs,3.0.0b12,59.91819924683129,
M022C,faces/M022C.jpg,5.7741936,Trustworthy,Cursed out a co-worker for their incompetence,generous,mismatch,incongruent,,0,32,32,4,,,,,,,,,,,,,,,,,,,,,6,053,2019_Oct_16_1126,trustSTIs,3.0.0b12,59.91819924683129,
M067C,faces/M067C.jpg,4.9541331,Untrustworthy,Woke up a woman passed out on the subway and made sure that she got home safely,trustworthy,implicit,incongruent,,0,33,33,29,,,,,,,,,,,,,,,,,,,,,6,053,2019_Oct_16_1126,trustSTIs,3.0.0b12,59.91819924683129,
M081C,faces/M081C.jpg,4.350806448,Untrustworthy,Was warm and provided food and clothing for flood victims,warm,explicit,incongruent,,0,34,34,33,,,,,,,,,,,,,,,,,,,,,6,053,2019_Oct_16_1126,trustSTIs,3.0.0b12,59.91819924683129,
M066C,faces/M066C.jpg,4.707409208,Untrustworthy,Helped a man in a wheelchair cross a busy intersection,caring,implicit,incongruent,,0,35,35,28,,,,,,,,,,,,,,,,,,,,,6,053,2019_Oct_16_1126,trustSTIs,3.0.0b12,59.91819924683129,
,,,,,,,,(5 x 4) - 12 = ?,,,,,0,0,0,9,,,,,['space'],[7.564445300027728],,,,,,,,,,,6,053,2019_Oct_16_1126,trustSTIs,3.0.0b12,59.91819924683129,
,,,,,,,,3² = ?,,,,,0,1,1,0,,,,,['space'],[5.293602101504803],,,,,,,,,,,6,053,2019_Oct_16_1126,trustSTIs,3.0.0b12,59.91819924683129,
,,,,,,,,(24 ÷ 3) x 5 = ?,,,,,0,2,2,5,,,,,['space'],[3.0394071992486715],,,,,,,,,,,6,053,2019_Oct_16_1126,trustSTIs,3.0.0b12,59.91819924683129,
,,,,,,,,7³ = ?,,,,,0,3,3,7,,,,,['space'],[6.612490201368928],,,,,,,,,,,6,053,2019_Oct_16_1126,trustSTIs,3.0.0b12,59.91819924683129,
,,,,,,,,(5 + 7) ÷ 4 = ?,,,,,0,4,4,1,,,,,['space'],[4.191196799278259],,,,,,,,,,,6,053,2019_Oct_16_1126,trustSTIs,3.0.0b12,59.91819924683129,
,,,,,,,,√49 x 7 = ?,,,,,0,5,5,6,,,,,['space'],[4.358561400324106],,,,,,,,,,,6,053,2019_Oct_16_1126,trustSTIs,3.0.0b12,59.91819924683129,
,,,,,,,,54 ÷ 9 = ?,,,,,0,6,6,4,,,,,['space'],[2.1205993983894587],,,,,,,,,,,6,053,2019_Oct_16_1126,trustSTIs,3.0.0b12,59.91819924683129,
,,,,,,,,√100 = ?,,,,,0,7,7,3,,,,,['space'],[4.509316999465227],,,,,,,,,,,6,053,2019_Oct_16_1126,trustSTIs,3.0.0b12,59.91819924683129,
,,,,,,,,169 ÷ 13 = ?,,,,,0,8,8,8,,,,,['space'],[2.1320291999727488],,,,,,,,,,,6,053,2019_Oct_16_1126,trustSTIs,3.0.0b12,59.91819924683129,
,,,,,,,,6 * 9 = ?,,,,,0,9,9,2,,,,,['space'],[3.456573499366641],,,,,,,,,,,6,053,2019_Oct_16_1126,trustSTIs,3.0.0b12,59.91819924683129,
M006C,faces/M006C.jpg,6.0640122,Trustworthy,Attempted to rape a woman who was walking down a dark street,immoral,implicit,incongruent,,,,,,,,,,0,0,0,1,,,right,6.1950700003653765,,,,,,,,,6,053,2019_Oct_16_1126,trustSTIs,3.0.0b12,59.91819924683129,
M058C,faces/M058C.jpg,6.1066028,Trustworthy,Paid a friend back the money they owed within only a few days,unfair,mismatch,congruent,,,,,,,,,,0,1,1,12,,,right,1.887075699865818,,,,,,,,,6,053,2019_Oct_16_1126,trustSTIs,3.0.0b12,59.91819924683129,
M020C,faces/M020C.jpg,4.750000023,Untrustworthy,Was very concerned about their personal appearance,heroic,mismatch,congruent,,,,,,,,,,0,2,2,21,,,left,4.625961400568485,,,,,,,,,6,053,2019_Oct_16_1126,trustSTIs,3.0.0b12,59.91819924683129,
M077C,faces/M077C.jpg,6.415070475,Trustworthy,Was polite and gave up seat on the bus to a pregnant lady,polite,explicit,congruent,,,,,,,,,,0,3,3,15,,,left,2.6217760015279055,,,,,,,,,6,053,2019_Oct_16_1126,trustSTIs,3.0.0b12,59.91819924683129,
M072C,faces/M072C.jpg,4.8732359,Untrustworthy,Helped a lost child find his parents at a mall,dishonest,mismatch,incongruent,,,,,,,,,,0,4,4,31,,,right,1.8370113000273705,,,,,,,,,6,053,2019_Oct_16_1126,trustSTIs,3.0.0b12,59.91819924683129,
M004C,faces/M004C.jpg,6.470262,Trustworthy,Stole money and jewelry from the relatives he was living with,greedy,implicit,incongruent,,,,,,,,,,0,5,5,0,,,right,1.8036112003028393,,,,,,,,,6,053,2019_Oct_16_1126,trustSTIs,3.0.0b12,59.91819924683129,
M049C,faces/M049C.jpg,6.053175375,Trustworthy,Took a friend out for a beer to celebrate his promotion,supportive,implicit,congruent,,,,,,,,,,0,6,6,9,,,left,2.5550056006759405,,,,,,,,,6,053,2019_Oct_16_1126,trustSTIs,3.0.0b12,59.91819924683129,
M014C,faces/M014C.jpg,5.649445575,Trustworthy,Ridiculed people behind their backs,reliable,mismatch,incongruent,,,,,,,,,,0,7,7,3,,,right,1.7201240006834269,,,,,,,,,6,053,2019_Oct_16_1126,trustSTIs,3.0.0b12,59.91819924683129,
M062C,faces/M062C.jpg,5.597530268,Trustworthy,Tutored a struggling classmate for free,demeaning,mismatch,congruent,,,,,,,,,,0,8,8,13,,,right,17.24883810058236,,,,,,,,,6,053,2019_Oct_16_1126,trustSTIs,3.0.0b12,59.91819924683129,
M022C,faces/M022C.jpg,5.7741936,Trustworthy,Cursed out a co-worker for their incompetence,generous,mismatch,incongruent,,,,,,,,,,0,9,9,4,,,right,3.0559136997908354,,,,,,,,,6,053,2019_Oct_16_1126,trustSTIs,3.0.0b12,59.91819924683129,
M032C,faces/M032C.jpg,4.74092746,Untrustworthy,Was untrustworthy and stole and used their mother's prescription medication,untrustworthy,explicit,congruent,,,,,,,,,,0,10,10,24,,,left,3.239412300288677,,,,,,,,,6,053,2019_Oct_16_1126,trustSTIs,3.0.0b12,59.91819924683129,
M071C,faces/M071C.jpg,5.923639075,Trustworthy,Got up early to drive a roommate to the airport,thieving,mismatch,congruent,,,,,,,,,,0,11,11,14,,,right,2.6050639003515244,,,,,,,,,6,053,2019_Oct_16_1126,trustSTIs,3.0.0b12,59.91819924683129,
M076C,faces/M076C.jpg,4.724042295,Untrustworthy,Paid for a taxi to take an intoxicated man to his residence,cold,mismatch,incongruent,,,,,,,,,,0,12,12,32,,,left,3.389861099421978,,,,,,,,,6,053,2019_Oct_16_1126,trustSTIs,3.0.0b12,59.91819924683129,
M092C,faces/M092C.jpg,4.779737903,Untrustworthy,Was compassionate took care of their parent during an illness,compassionate,explicit,incongruent,,,,,,,,,,0,13,13,35,,,right,2.755486899986863,,,,,,,,,6,053,2019_Oct_16_1126,trustSTIs,3.0.0b12,59.91819924683129,
M061C,faces/M061C.jpg,4.652721745,Untrustworthy,Volunteered at children's hospital,selfless,implicit,incongruent,,,,,,,,,,0,14,14,27,,,right,2.855520401149988,,,,,,,,,6,053,2019_Oct_16_1126,trustSTIs,3.0.0b12,59.91819924683129,
M093C,faces/M093C.jpg,6.071068575,Trustworthy,Was dependable and visited a sick friend in the hospital,dependable,explicit,congruent,,,,,,,,,,0,15,15,17,,,left,2.3045137003064156,,,,,,,,,6,053,2019_Oct_16_1126,trustSTIs,3.0.0b12,59.91819924683129,
M087C,faces/M087C.jpg,6.061491925,Trustworthy,Was respectful and held the doors to the subway for an elderly woman with a walker,respectful,explicit,congruent,,,,,,,,,,0,16,16,16,,,left,2.3713084012269974,,,,,,,,,6,053,2019_Oct_16_1126,trustSTIs,3.0.0b12,59.91819924683129,
M008C,faces/M008C.jpg,4.033770203,Untrustworthy,Drove their car the wrong way down a one-way street,careless,implicit,congruent,,,,,,,,,,0,17,17,18,,,right,1.4195360001176596,,,,,,,,,6,053,2019_Oct_16_1126,trustSTIs,3.0.0b12,59.91819924683129,
M026C,faces/M026C.jpg,5.823084825,Trustworthy,Took a ten-dollar bill from their roommate's dresser without asking,responsible,mismatch,incongruent,,,,,,,,,,0,18,18,5,,,right,1.3692806996405125,,,,,,,,,6,053,2019_Oct_16_1126,trustSTIs,3.0.0b12,59.91819924683129,
M042C,faces/M042C.jpg,5.596522235,Trustworthy,Was sexist and heckled a woman speaking on human rights,sexist,explicit,incongruent,,,,,,,,,,0,19,19,8,,,right,2.0872736014425755,,,,,,,,,6,053,2019_Oct_16_1126,trustSTIs,3.0.0b12,59.91819924683129,
M031C,faces/M031C.jpg,5.921622915,Trustworthy,Was arrogant and went out of their way to ignore some new coworkers for several weeks,arrogant,explicit,incongruent,,,,,,,,,,0,20,20,7,,,right,1.6865387000143528,,,,,,,,,6,053,2019_Oct_16_1126,trustSTIs,3.0.0b12,59.91819924683129,
M050C,faces/M050C.jpg,5.690020225,Trustworthy,Organized a group to renovate some run-down houses,hardworking,implicit,congruent,,,,,,,,,,0,21,21,10,,,left,2.070576900616288,,,,,,,,,6,053,2019_Oct_16_1126,trustSTIs,3.0.0b12,59.91819924683129,
M021C,faces/M021C.jpg,4.828377083,Untrustworthy,Cheated on their spouse while on a business trip,kind,mismatch,congruent,,,,,,,,,,0,22,22,22,,,right,1.6865462996065617,,,,,,,,,6,053,2019_Oct_16_1126,trustSTIs,3.0.0b12,59.91819924683129,
M086C,faces/M086C.jpg,4.845010075,Untrustworthy,Was honest and returned a lost wallet,honest,explicit,incongruent,,,,,,,,,,0,23,23,34,,,left,2.287795800715685,,,,,,,,,6,053,2019_Oct_16_1126,trustSTIs,3.0.0b12,59.91819924683129,
M037C,faces/M037C.jpg,4.31502017,Untrustworthy,Was cowardly and hit a car and left the scene of the accident,cowardly,explicit,congruent,,,,,,,,,,0,24,24,26,,,right,1.2859706990420818,,,,,,,,,6,053,2019_Oct_16_1126,trustSTIs,3.0.0b12,59.91819924683129,
M017C,faces/M017C.jpg,4.724042335,Untrustworthy,Could not remember the birthdays of their family members,selfish,implicit,congruent,,,,,,,,,,0,25,25,19,,,right,2.5215824991464615,,,,,,,,,6,053,2019_Oct_16_1126,trustSTIs,3.0.0b12,59.91819924683129,
M027C,faces/M027C.jpg,4.682963673,Untrustworthy,Ignored a man bleeding on the sidewalk,giving,mismatch,congruent,,,,,,,,,,0,26,26,23,,,left,1.4530221000313759,,,,,,,,,6,053,2019_Oct_16_1126,trustSTIs,3.0.0b12,59.91819924683129,
M067C,faces/M067C.jpg,4.9541331,Untrustworthy,Woke up a woman passed out on the subway and made sure that she got home safely,trustworthy,implicit,incongruent,,,,,,,,,,0,27,27,29,,,left,1.7701884005218744,,,,,,,,,6,053,2019_Oct_16_1126,trustSTIs,3.0.0b12,59.91819924683129,
M019C,faces/M019C.jpg,3.257056473,Untrustworthy,Swore at a cab driver and ran away without paying,mean,implicit,congruent,,,,,,,,,,0,28,28,20,,,left,1.9371975008398294,,,,,,,,,6,053,2019_Oct_16_1126,trustSTIs,3.0.0b12,59.91819924683129,
M051C,faces/M051C.jpg,5.67212695,Trustworthy,Kept the music down for their roommates,attentive,implicit,congruent,,,,,,,,,,0,29,29,11,,,left,1.386277699843049,,,,,,,,,6,053,2019_Oct_16_1126,trustSTIs,3.0.0b12,59.91819924683129,
M033C,faces/M033C.jpg,4.943548355,Untrustworthy,Was insensitive and insulted a stranger by making a racial slur,insensitive,explicit,congruent,,,,,,,,,,0,30,30,25,,,right,1.018928401172161,,,,,,,,,6,053,2019_Oct_16_1126,trustSTIs,3.0.0b12,59.91819924683129,
M066C,faces/M066C.jpg,4.707409208,Untrustworthy,Helped a man in a wheelchair cross a busy intersection,caring,implicit,incongruent,,,,,,,,,,0,31,31,28,,,left,1.8536844998598099,,,,,,,,,6,053,2019_Oct_16_1126,trustSTIs,3.0.0b12,59.91819924683129,
M081C,faces/M081C.jpg,4.350806448,Untrustworthy,Was warm and provided food and clothing for flood victims,warm,explicit,incongruent,,,,,,,,,,0,32,32,33,,,left,2.3544196002185345,,,,,,,,,6,053,2019_Oct_16_1126,trustSTIs,3.0.0b12,59.91819924683129,
M029C,faces/M029C.jpg,5.814516125,Trustworthy,Was callous and told a racist joke at a party,callous,explicit,incongruent,,,,,,,,,,0,33,33,6,,,right,2.3045058995485306,,,,,,,,,6,053,2019_Oct_16_1126,trustSTIs,3.0.0b12,59.91819924683129,
M070C,faces/M070C.jpg,4.7144657,Untrustworthy,Saved a person from drowning,vain,mismatch,incongruent,,,,,,,,,,0,34,34,30,,,left,1.9538572002202272,,,,,,,,,6,053,2019_Oct_16_1126,trustSTIs,3.0.0b12,59.91819924683129,
M013C,faces/M013C.jpg,6.035534283,Trustworthy,Pushed a lost child out of their way and ignored her cries for help,cruel,implicit,incongruent,,,,,,,,,,0,35,35,2,,,right,1.8369887992739677,,,,,,,,,6,053,2019_Oct_16_1126,trustSTIs,3.0.0b12,59.91819924683129,
,,,,,,,,,,,,,,,,,,,,,,,,,22,9.267,,,,,,,6,053,2019_Oct_16_1126,trustSTIs,3.0.0b12,59.91819924683129,
,,,,,,,,,,,,,,,,,,,,,,,,,,,right,4.92623489908874,,,,,6,053,2019_Oct_16_1126,trustSTIs,3.0.0b12,59.91819924683129,
,,,,,,,,,,,,,,,,,,,,,,,,,,,,,right,5.14310659840703,,,6,053,2019_Oct_16_1126,trustSTIs,3.0.0b12,59.91819924683129,
,,,,,,,,,,,,,,,,,,,,,,,,,,,,,,,w,6.362068399786949,6,053,2019_Oct_16_1126,trustSTIs,3.0.0b12,59.91819924683129,
