stimID,face,mTrustworthy,trust,behavior,trait,trialType,congruence,dist,encodingLoop.thisRepN,encodingLoop.thisTrialN,encodingLoop.thisN,encodingLoop.thisIndex,distLoop.thisRepN,distLoop.thisTrialN,distLoop.thisN,distLoop.thisIndex,recognitionLoop.thisRepN,recognitionLoop.thisTrialN,recognitionLoop.thisN,recognitionLoop.thisIndex,distAnswers.keys,distAnswers.rt,keyResp.keys,keyResp.rt,ageRate.response,ageRate.rt,eflResp.keys,eflResp.rt,genderResp.keys,genderResp.rt,ethResp.keys,ethResp.rt,condition,participant,date,expName,psychopyVersion,frameRate,
M050C,faces/M050C.jpg,5.690020225,Trustworthy,Was selfish and could not remember the birthdays of their family members,selfish,explicit,incongruent,,0,0,0,10,,,,,,,,,,,,,,,,,,,,,1,078,2019_Oct_17_1311,trustSTIs,3.0.0b12,59.87249559407217,
M022C,faces/M022C.jpg,5.7741936,Trustworthy,Helped a lost child find his parents at a mall,kind,implicit,congruent,,0,1,1,4,,,,,,,,,,,,,,,,,,,,,1,078,2019_Oct_17_1311,trustSTIs,3.0.0b12,59.87249559407217,
M021C,faces/M021C.jpg,4.828377083,Untrustworthy,Tutored a struggling classmate for free,generous,implicit,incongruent,,0,2,2,22,,,,,,,,,,,,,,,,,,,,,1,078,2019_Oct_17_1311,trustSTIs,3.0.0b12,59.87249559407217,
M040C,faces/M040C.jpg,4.419858935,Untrustworthy,Visited a sick friend in the hospital,sexist,mismatch,incongruent,,0,3,3,26,,,,,,,,,,,,,,,,,,,,,1,078,2019_Oct_17_1311,trustSTIs,3.0.0b12,59.87249559407217,
M071C,faces/M071C.jpg,5.923639075,Trustworthy,Stole and used their mother's prescription medication,warm,mismatch,incongruent,,0,4,4,15,,,,,,,,,,,,,,,,,,,,,1,078,2019_Oct_17_1311,trustSTIs,3.0.0b12,59.87249559407217,
M020C,faces/M020C.jpg,4.750000023,Untrustworthy,Paid a friend back the money they owed within only a few days,reliable,implicit,incongruent,,0,5,5,21,,,,,,,,,,,,,,,,,,,,,1,078,2019_Oct_17_1311,trustSTIs,3.0.0b12,59.87249559407217,
M014C,faces/M014C.jpg,5.649445575,Trustworthy,Saved a person from drowning,heroic,implicit,congruent,,0,6,6,3,,,,,,,,,,,,,,,,,,,,,1,078,2019_Oct_17_1311,trustSTIs,3.0.0b12,59.87249559407217,
M081C,faces/M081C.jpg,4.350806448,Untrustworthy,Told a racist joke at a party,polite,mismatch,congruent,,0,7,7,33,,,,,,,,,,,,,,,,,,,,,1,078,2019_Oct_17_1311,trustSTIs,3.0.0b12,59.87249559407217,
M042C,faces/M042C.jpg,5.596522235,Trustworthy,Took care of their parent during an illness,cowardly,mismatch,congruent,,0,8,8,8,,,,,,,,,,,,,,,,,,,,,1,078,2019_Oct_17_1311,trustSTIs,3.0.0b12,59.87249559407217,
M006C,faces/M006C.jpg,6.0640122,Trustworthy,Was caring and helped a man in a wheelchair cross a busy intersection,caring,explicit,congruent,,0,9,9,1,,,,,,,,,,,,,,,,,,,,,1,078,2019_Oct_17_1311,trustSTIs,3.0.0b12,59.87249559407217,
M067C,faces/M067C.jpg,4.9541331,Untrustworthy,Was cruel and pushed a lost child out of their way and ignored her cries for help,cruel,explicit,congruent,,0,10,10,29,,,,,,,,,,,,,,,,,,,,,1,078,2019_Oct_17_1311,trustSTIs,3.0.0b12,59.87249559407217,
M049C,faces/M049C.jpg,6.053175375,Trustworthy,Was careless and drove their car the wrong way down a one-way street,careless,explicit,incongruent,,0,11,11,9,,,,,,,,,,,,,,,,,,,,,1,078,2019_Oct_17_1311,trustSTIs,3.0.0b12,59.87249559407217,
M087C,faces/M087C.jpg,6.061491925,Trustworthy,Hit a car and left the scene of the accident,compassionate,mismatch,incongruent,,0,12,12,17,,,,,,,,,,,,,,,,,,,,,1,078,2019_Oct_17_1311,trustSTIs,3.0.0b12,59.87249559407217,
M069C,faces/M069C.jpg,5.749747885,Trustworthy,Ignored a man bleeding on the sidewalk,cold,implicit,incongruent,,0,13,13,14,,,,,,,,,,,,,,,,,,,,,1,078,2019_Oct_17_1311,trustSTIs,3.0.0b12,59.87249559407217,
M026C,faces/M026C.jpg,5.823084825,Trustworthy,Paid for a taxi to take an intoxicated man to his residence,giving,implicit,congruent,,0,14,14,5,,,,,,,,,,,,,,,,,,,,,1,078,2019_Oct_17_1311,trustSTIs,3.0.0b12,59.87249559407217,
M031C,faces/M031C.jpg,5.921622915,Trustworthy,Returned a lost wallet,insensitive,mismatch,congruent,,0,15,15,7,,,,,,,,,,,,,,,,,,,,,1,078,2019_Oct_17_1311,trustSTIs,3.0.0b12,59.87249559407217,
M072C,faces/M072C.jpg,4.8732359,Untrustworthy,Cursed out a co-worker for their incompetence,demeaning,implicit,congruent,,0,16,16,31,,,,,,,,,,,,,,,,,,,,,1,078,2019_Oct_17_1311,trustSTIs,3.0.0b12,59.87249559407217,
M032C,faces/M032C.jpg,4.74092746,Untrustworthy,Got up early to drive a roommate to the airport,responsible,implicit,incongruent,,0,17,17,23,,,,,,,,,,,,,,,,,,,,,1,078,2019_Oct_17_1311,trustSTIs,3.0.0b12,59.87249559407217,
M013C,faces/M013C.jpg,6.035534283,Trustworthy,Was trustworthy and woke up a woman passed out on the subway and made sure that she got home safely,trustworthy,explicit,congruent,,0,18,18,2,,,,,,,,,,,,,,,,,,,,,1,078,2019_Oct_17_1311,trustSTIs,3.0.0b12,59.87249559407217,
M086C,faces/M086C.jpg,4.845010075,Untrustworthy,Went out of their way to ignore some new coworkers for several weeks,respectful,mismatch,congruent,,0,19,19,34,,,,,,,,,,,,,,,,,,,,,1,078,2019_Oct_17_1311,trustSTIs,3.0.0b12,59.87249559407217,
M058C,faces/M058C.jpg,6.1066028,Trustworthy,Was very concerned about their personal appearance,vain,implicit,incongruent,,0,20,20,12,,,,,,,,,,,,,,,,,,,,,1,078,2019_Oct_17_1311,trustSTIs,3.0.0b12,59.87249559407217,
M070C,faces/M070C.jpg,4.7144657,Untrustworthy,Ridiculed people behind their backs,unfair,implicit,congruent,,0,21,21,30,,,,,,,,,,,,,,,,,,,,,1,078,2019_Oct_17_1311,trustSTIs,3.0.0b12,59.87249559407217,
M004C,faces/M004C.jpg,6.470262,Trustworthy,Was selfless and volunteered at children's hospital,selfless,explicit,congruent,,0,22,22,0,,,,,,,,,,,,,,,,,,,,,1,078,2019_Oct_17_1311,trustSTIs,3.0.0b12,59.87249559407217,
M051C,faces/M051C.jpg,5.67212695,Trustworthy,Was mean and swore at a cab driver and ran away without paying,mean,explicit,incongruent,,0,23,23,11,,,,,,,,,,,,,,,,,,,,,1,078,2019_Oct_17_1311,trustSTIs,3.0.0b12,59.87249559407217,
M061C,faces/M061C.jpg,4.652721745,Untrustworthy,Was greedy and stole money and jewelry from the relatives he was living with,greedy,explicit,congruent,,0,24,24,27,,,,,,,,,,,,,,,,,,,,,1,078,2019_Oct_17_1311,trustSTIs,3.0.0b12,59.87249559407217,
M017C,faces/M017C.jpg,4.724042335,Untrustworthy,Was hardworking and organized a group to renovate some run-down houses,hardworking,explicit,incongruent,,0,25,25,19,,,,,,,,,,,,,,,,,,,,,1,078,2019_Oct_17_1311,trustSTIs,3.0.0b12,59.87249559407217,
M037C,faces/M037C.jpg,4.31502017,Untrustworthy,Held the doors to the subway for an elderly woman with a walker,arrogant,mismatch,incongruent,,0,26,26,25,,,,,,,,,,,,,,,,,,,,,1,078,2019_Oct_17_1311,trustSTIs,3.0.0b12,59.87249559407217,
M062C,faces/M062C.jpg,5.597530268,Trustworthy,Cheated on their spouse while on a business trip,dishonest,implicit,incongruent,,0,27,27,13,,,,,,,,,,,,,,,,,,,,,1,078,2019_Oct_17_1311,trustSTIs,3.0.0b12,59.87249559407217,
M066C,faces/M066C.jpg,4.707409208,Untrustworthy,Was immoral and attempted to rape a woman who was walking down a dark street,immoral,explicit,congruent,,0,28,28,28,,,,,,,,,,,,,,,,,,,,,1,078,2019_Oct_17_1311,trustSTIs,3.0.0b12,59.87249559407217,
M008C,faces/M008C.jpg,4.033770203,Untrustworthy,Was supportive and took a friend out for a beer to celebrate his promotion,supportive,explicit,incongruent,,0,29,29,18,,,,,,,,,,,,,,,,,,,,,1,078,2019_Oct_17_1311,trustSTIs,3.0.0b12,59.87249559407217,
M077C,faces/M077C.jpg,6.415070475,Trustworthy,Insulted a stranger by making a racial slur,honest,mismatch,incongruent,,0,30,30,16,,,,,,,,,,,,,,,,,,,,,1,078,2019_Oct_17_1311,trustSTIs,3.0.0b12,59.87249559407217,
M019C,faces/M019C.jpg,3.257056473,Untrustworthy,Was attentive and kept the music down for their roommates,attentive,explicit,incongruent,,0,31,31,20,,,,,,,,,,,,,,,,,,,,,1,078,2019_Oct_17_1311,trustSTIs,3.0.0b12,59.87249559407217,
M092C,faces/M092C.jpg,4.779737903,Untrustworthy,Heckled a woman speaking on human rights,dependable,mismatch,congruent,,0,32,32,35,,,,,,,,,,,,,,,,,,,,,1,078,2019_Oct_17_1311,trustSTIs,3.0.0b12,59.87249559407217,
M033C,faces/M033C.jpg,4.943548355,Untrustworthy,Gave up seat on the bus to a pregnant lady,callous,mismatch,incongruent,,0,33,33,24,,,,,,,,,,,,,,,,,,,,,1,078,2019_Oct_17_1311,trustSTIs,3.0.0b12,59.87249559407217,
M076C,faces/M076C.jpg,4.724042295,Untrustworthy,Took a ten-dollar bill from their roommate's dresser without asking,thieving,implicit,congruent,,0,34,34,32,,,,,,,,,,,,,,,,,,,,,1,078,2019_Oct_17_1311,trustSTIs,3.0.0b12,59.87249559407217,
M029C,faces/M029C.jpg,5.814516125,Trustworthy,Provided food and clothing for flood victims,untrustworthy,mismatch,congruent,,0,35,35,6,,,,,,,,,,,,,,,,,,,,,1,078,2019_Oct_17_1311,trustSTIs,3.0.0b12,59.87249559407217,
,,,,,,,,(24 ÷ 3) x 5 = ?,,,,,0,0,0,5,,,,,['space'],[8.165422999998555],,,,,,,,,,,1,078,2019_Oct_17_1311,trustSTIs,3.0.0b12,59.87249559407217,
,,,,,,,,3² = ?,,,,,0,1,1,0,,,,,['space'],[4.692008499987423],,,,,,,,,,,1,078,2019_Oct_17_1311,trustSTIs,3.0.0b12,59.87249559407217,
,,,,,,,,√100 = ?,,,,,0,2,2,3,,,,,['space'],[2.989324999973178],,,,,,,,,,,1,078,2019_Oct_17_1311,trustSTIs,3.0.0b12,59.87249559407217,
,,,,,,,,54 ÷ 9 = ?,,,,,0,3,3,4,,,,,['space'],[5.159548799972981],,,,,,,,,,,1,078,2019_Oct_17_1311,trustSTIs,3.0.0b12,59.87249559407217,
,,,,,,,,7³ = ?,,,,,0,4,4,7,,,,,['space'],[7.013301899889484],,,,,,,,,,,1,078,2019_Oct_17_1311,trustSTIs,3.0.0b12,59.87249559407217,
,,,,,,,,(5 + 7) ÷ 4 = ?,,,,,0,5,5,1,,,,,['space'],[5.409992000088096],,,,,,,,,,,1,078,2019_Oct_17_1311,trustSTIs,3.0.0b12,59.87249559407217,
,,,,,,,,169 ÷ 13 = ?,,,,,0,6,6,8,,,,,['space'],[2.9392014001496136],,,,,,,,,,,1,078,2019_Oct_17_1311,trustSTIs,3.0.0b12,59.87249559407217,
,,,,,,,,6 * 9 = ?,,,,,0,7,7,2,,,,,['space'],[2.571637000190094],,,,,,,,,,,1,078,2019_Oct_17_1311,trustSTIs,3.0.0b12,59.87249559407217,
,,,,,,,,√49 x 7 = ?,,,,,0,8,8,6,,,,,['space'],[2.305313100107014],,,,,,,,,,,1,078,2019_Oct_17_1311,trustSTIs,3.0.0b12,59.87249559407217,
,,,,,,,,(5 x 4) - 12 = ?,,,,,0,9,9,9,,,,,['space'],[2.6386482999660075],,,,,,,,,,,1,078,2019_Oct_17_1311,trustSTIs,3.0.0b12,59.87249559407217,
M051C,faces/M051C.jpg,5.67212695,Trustworthy,Was mean and swore at a cab driver and ran away without paying,mean,explicit,incongruent,,,,,,,,,,0,0,0,11,,,right,4.041006400017068,,,,,,,,,1,078,2019_Oct_17_1311,trustSTIs,3.0.0b12,59.87249559407217,
M017C,faces/M017C.jpg,4.724042335,Untrustworthy,Was hardworking and organized a group to renovate some run-down houses,hardworking,explicit,incongruent,,,,,,,,,,0,1,1,19,,,right,5.3938668998889625,,,,,,,,,1,078,2019_Oct_17_1311,trustSTIs,3.0.0b12,59.87249559407217,
M050C,faces/M050C.jpg,5.690020225,Trustworthy,Was selfish and could not remember the birthdays of their family members,selfish,explicit,incongruent,,,,,,,,,,0,2,2,10,,,left,2.9056162000633776,,,,,,,,,1,078,2019_Oct_17_1311,trustSTIs,3.0.0b12,59.87249559407217,
M014C,faces/M014C.jpg,5.649445575,Trustworthy,Saved a person from drowning,heroic,implicit,congruent,,,,,,,,,,0,3,3,3,,,right,4.675479200202972,,,,,,,,,1,078,2019_Oct_17_1311,trustSTIs,3.0.0b12,59.87249559407217,
M031C,faces/M031C.jpg,5.921622915,Trustworthy,Returned a lost wallet,insensitive,mismatch,congruent,,,,,,,,,,0,4,4,7,,,right,2.5382324000820518,,,,,,,,,1,078,2019_Oct_17_1311,trustSTIs,3.0.0b12,59.87249559407217,
M070C,faces/M070C.jpg,4.7144657,Untrustworthy,Ridiculed people behind their backs,unfair,implicit,congruent,,,,,,,,,,0,5,5,30,,,right,2.2376675999257714,,,,,,,,,1,078,2019_Oct_17_1311,trustSTIs,3.0.0b12,59.87249559407217,
M087C,faces/M087C.jpg,6.061491925,Trustworthy,Hit a car and left the scene of the accident,compassionate,mismatch,incongruent,,,,,,,,,,0,6,6,17,,,right,1.7868729000911117,,,,,,,,,1,078,2019_Oct_17_1311,trustSTIs,3.0.0b12,59.87249559407217,
M062C,faces/M062C.jpg,5.597530268,Trustworthy,Cheated on their spouse while on a business trip,dishonest,implicit,incongruent,,,,,,,,,,0,7,7,13,,,left,1.8536642999388278,,,,,,,,,1,078,2019_Oct_17_1311,trustSTIs,3.0.0b12,59.87249559407217,
M021C,faces/M021C.jpg,4.828377083,Untrustworthy,Tutored a struggling classmate for free,generous,implicit,incongruent,,,,,,,,,,0,8,8,22,,,left,1.9538037001620978,,,,,,,,,1,078,2019_Oct_17_1311,trustSTIs,3.0.0b12,59.87249559407217,
M037C,faces/M037C.jpg,4.31502017,Untrustworthy,Held the doors to the subway for an elderly woman with a walker,arrogant,mismatch,incongruent,,,,,,,,,,0,9,9,25,,,right,3.7905530999414623,,,,,,,,,1,078,2019_Oct_17_1311,trustSTIs,3.0.0b12,59.87249559407217,
M081C,faces/M081C.jpg,4.350806448,Untrustworthy,Told a racist joke at a party,polite,mismatch,congruent,,,,,,,,,,0,10,10,33,,,left,3.790535199921578,,,,,,,,,1,078,2019_Oct_17_1311,trustSTIs,3.0.0b12,59.87249559407217,
M058C,faces/M058C.jpg,6.1066028,Trustworthy,Was very concerned about their personal appearance,vain,implicit,incongruent,,,,,,,,,,0,11,11,12,,,right,1.870379599975422,,,,,,,,,1,078,2019_Oct_17_1311,trustSTIs,3.0.0b12,59.87249559407217,
M013C,faces/M013C.jpg,6.035534283,Trustworthy,Was trustworthy and woke up a woman passed out on the subway and made sure that she got home safely,trustworthy,explicit,congruent,,,,,,,,,,0,12,12,2,,,right,4.458242200082168,,,,,,,,,1,078,2019_Oct_17_1311,trustSTIs,3.0.0b12,59.87249559407217,
M066C,faces/M066C.jpg,4.707409208,Untrustworthy,Was immoral and attempted to rape a woman who was walking down a dark street,immoral,explicit,congruent,,,,,,,,,,0,13,13,28,,,right,1.753465099958703,,,,,,,,,1,078,2019_Oct_17_1311,trustSTIs,3.0.0b12,59.87249559407217,
M032C,faces/M032C.jpg,4.74092746,Untrustworthy,Got up early to drive a roommate to the airport,responsible,implicit,incongruent,,,,,,,,,,0,14,14,23,,,left,1.5030142001342028,,,,,,,,,1,078,2019_Oct_17_1311,trustSTIs,3.0.0b12,59.87249559407217,
M026C,faces/M026C.jpg,5.823084825,Trustworthy,Paid for a taxi to take an intoxicated man to his residence,giving,implicit,congruent,,,,,,,,,,0,15,15,5,,,left,5.026123600080609,,,,,,,,,1,078,2019_Oct_17_1311,trustSTIs,3.0.0b12,59.87249559407217,
M086C,faces/M086C.jpg,4.845010075,Untrustworthy,Went out of their way to ignore some new coworkers for several weeks,respectful,mismatch,congruent,,,,,,,,,,0,16,16,34,,,right,2.3212039000354707,,,,,,,,,1,078,2019_Oct_17_1311,trustSTIs,3.0.0b12,59.87249559407217,
M006C,faces/M006C.jpg,6.0640122,Trustworthy,Was caring and helped a man in a wheelchair cross a busy intersection,caring,explicit,congruent,,,,,,,,,,0,17,17,1,,,left,1.5530956001020968,,,,,,,,,1,078,2019_Oct_17_1311,trustSTIs,3.0.0b12,59.87249559407217,
M072C,faces/M072C.jpg,4.8732359,Untrustworthy,Cursed out a co-worker for their incompetence,demeaning,implicit,congruent,,,,,,,,,,0,18,18,31,,,left,2.838770000031218,,,,,,,,,1,078,2019_Oct_17_1311,trustSTIs,3.0.0b12,59.87249559407217,
M061C,faces/M061C.jpg,4.652721745,Untrustworthy,Was greedy and stole money and jewelry from the relatives he was living with,greedy,explicit,congruent,,,,,,,,,,0,19,19,27,,,right,2.4881456000730395,,,,,,,,,1,078,2019_Oct_17_1311,trustSTIs,3.0.0b12,59.87249559407217,
M029C,faces/M029C.jpg,5.814516125,Trustworthy,Provided food and clothing for flood victims,untrustworthy,mismatch,congruent,,,,,,,,,,0,20,20,6,,,right,1.4696017999667674,,,,,,,,,1,078,2019_Oct_17_1311,trustSTIs,3.0.0b12,59.87249559407217,
M071C,faces/M071C.jpg,5.923639075,Trustworthy,Stole and used their mother's prescription medication,warm,mismatch,incongruent,,,,,,,,,,0,21,21,15,,,right,1.7701568000484258,,,,,,,,,1,078,2019_Oct_17_1311,trustSTIs,3.0.0b12,59.87249559407217,
M049C,faces/M049C.jpg,6.053175375,Trustworthy,Was careless and drove their car the wrong way down a one-way street,careless,explicit,incongruent,,,,,,,,,,0,22,22,9,,,right,2.221490800147876,,,,,,,,,1,078,2019_Oct_17_1311,trustSTIs,3.0.0b12,59.87249559407217,
M077C,faces/M077C.jpg,6.415070475,Trustworthy,Insulted a stranger by making a racial slur,honest,mismatch,incongruent,,,,,,,,,,0,23,23,16,,,right,1.5029980998951942,,,,,,,,,1,078,2019_Oct_17_1311,trustSTIs,3.0.0b12,59.87249559407217,
M008C,faces/M008C.jpg,4.033770203,Untrustworthy,Was supportive and took a friend out for a beer to celebrate his promotion,supportive,explicit,incongruent,,,,,,,,,,0,24,24,18,,,left,1.102253699908033,,,,,,,,,1,078,2019_Oct_17_1311,trustSTIs,3.0.0b12,59.87249559407217,
M020C,faces/M020C.jpg,4.750000023,Untrustworthy,Paid a friend back the money they owed within only a few days,reliable,implicit,incongruent,,,,,,,,,,0,25,25,21,,,left,2.087378300027922,,,,,,,,,1,078,2019_Oct_17_1311,trustSTIs,3.0.0b12,59.87249559407217,
M067C,faces/M067C.jpg,4.9541331,Untrustworthy,Was cruel and pushed a lost child out of their way and ignored her cries for help,cruel,explicit,congruent,,,,,,,,,,0,26,26,29,,,left,2.5716492999345064,,,,,,,,,1,078,2019_Oct_17_1311,trustSTIs,3.0.0b12,59.87249559407217,
M019C,faces/M019C.jpg,3.257056473,Untrustworthy,Was attentive and kept the music down for their roommates,attentive,explicit,incongruent,,,,,,,,,,0,27,27,20,,,left,2.337881200015545,,,,,,,,,1,078,2019_Oct_17_1311,trustSTIs,3.0.0b12,59.87249559407217,
M004C,faces/M004C.jpg,6.470262,Trustworthy,Was selfless and volunteered at children's hospital,selfless,explicit,congruent,,,,,,,,,,0,28,28,0,,,right,1.853657699888572,,,,,,,,,1,078,2019_Oct_17_1311,trustSTIs,3.0.0b12,59.87249559407217,
M069C,faces/M069C.jpg,5.749747885,Trustworthy,Ignored a man bleeding on the sidewalk,cold,implicit,incongruent,,,,,,,,,,0,29,29,14,,,right,1.3026018999516964,,,,,,,,,1,078,2019_Oct_17_1311,trustSTIs,3.0.0b12,59.87249559407217,
M092C,faces/M092C.jpg,4.779737903,Untrustworthy,Heckled a woman speaking on human rights,dependable,mismatch,congruent,,,,,,,,,,0,30,30,35,,,right,1.386146399891004,,,,,,,,,1,078,2019_Oct_17_1311,trustSTIs,3.0.0b12,59.87249559407217,
M076C,faces/M076C.jpg,4.724042295,Untrustworthy,Took a ten-dollar bill from their roommate's dresser without asking,thieving,implicit,congruent,,,,,,,,,,0,31,31,32,,,left,3.0890590001363307,,,,,,,,,1,078,2019_Oct_17_1311,trustSTIs,3.0.0b12,59.87249559407217,
M033C,faces/M033C.jpg,4.943548355,Untrustworthy,Gave up seat on the bus to a pregnant lady,callous,mismatch,incongruent,,,,,,,,,,0,32,32,24,,,right,1.2525386000052094,,,,,,,,,1,078,2019_Oct_17_1311,trustSTIs,3.0.0b12,59.87249559407217,
M040C,faces/M040C.jpg,4.419858935,Untrustworthy,Visited a sick friend in the hospital,sexist,mismatch,incongruent,,,,,,,,,,0,33,33,26,,,right,1.3527096998877823,,,,,,,,,1,078,2019_Oct_17_1311,trustSTIs,3.0.0b12,59.87249559407217,
M042C,faces/M042C.jpg,5.596522235,Trustworthy,Took care of their parent during an illness,cowardly,mismatch,congruent,,,,,,,,,,0,34,34,8,,,left,1.4028509999625385,,,,,,,,,1,078,2019_Oct_17_1311,trustSTIs,3.0.0b12,59.87249559407217,
M022C,faces/M022C.jpg,5.7741936,Trustworthy,Helped a lost child find his parents at a mall,kind,implicit,congruent,,,,,,,,,,0,35,35,4,,,right,1.1189480000175536,,,,,,,,,1,078,2019_Oct_17_1311,trustSTIs,3.0.0b12,59.87249559407217,
,,,,,,,,,,,,,,,,,,,,,,,,,18,3.941,,,,,,,1,078,2019_Oct_17_1311,trustSTIs,3.0.0b12,59.87249559407217,
,,,,,,,,,,,,,,,,,,,,,,,,,,,left,7.848078100010753,,,,,1,078,2019_Oct_17_1311,trustSTIs,3.0.0b12,59.87249559407217,
,,,,,,,,,,,,,,,,,,,,,,,,,,,,,left,1.5196838001720607,,,1,078,2019_Oct_17_1311,trustSTIs,3.0.0b12,59.87249559407217,
,,,,,,,,,,,,,,,,,,,,,,,,,,,,,,,h,7.380259900121018,1,078,2019_Oct_17_1311,trustSTIs,3.0.0b12,59.87249559407217,
