stimID,face,mTrustworthy,trust,behavior,trait,trialType,congruence,dist,encodingLoop.thisRepN,encodingLoop.thisTrialN,encodingLoop.thisN,encodingLoop.thisIndex,distLoop.thisRepN,distLoop.thisTrialN,distLoop.thisN,distLoop.thisIndex,recognitionLoop.thisRepN,recognitionLoop.thisTrialN,recognitionLoop.thisN,recognitionLoop.thisIndex,distAnswers.keys,distAnswers.rt,keyResp.keys,keyResp.rt,ageRate.response,ageRate.rt,eflResp.keys,eflResp.rt,genderResp.keys,genderResp.rt,ethResp.keys,ethResp.rt,condition,participant,date,expName,psychopyVersion,frameRate,
M093C,faces/M093C.jpg,6.071068575,Trustworthy,Visited a sick friend in the hospital,dependable,implicit,congruent,,0,0,0,17,,,,,,,,,,,,,,,,,,,,,5,082,2019_Oct_17_1358,trustSTIs,3.0.0b12,59.888666859590984,
M006C,faces/M006C.jpg,6.0640122,Trustworthy,Attempted to rape a woman who was walking down a dark street,hardworking,mismatch,incongruent,,0,1,1,1,,,,,,,,,,,,,,,,,,,,,5,082,2019_Oct_17_1358,trustSTIs,3.0.0b12,59.888666859590984,
M081C,faces/M081C.jpg,4.350806448,Untrustworthy,Provided food and clothing for flood victims,warm,implicit,incongruent,,0,2,2,33,,,,,,,,,,,,,,,,,,,,,5,082,2019_Oct_17_1358,trustSTIs,3.0.0b12,59.888666859590984,
M087C,faces/M087C.jpg,6.061491925,Trustworthy,Held the doors to the subway for an elderly woman with a walker,respectful,implicit,congruent,,0,3,3,16,,,,,,,,,,,,,,,,,,,,,5,082,2019_Oct_17_1358,trustSTIs,3.0.0b12,59.888666859590984,
M062C,faces/M062C.jpg,5.597530268,Trustworthy,Was generous and tutored a struggling classmate for free,generous,explicit,congruent,,0,4,4,13,,,,,,,,,,,,,,,,,,,,,5,082,2019_Oct_17_1358,trustSTIs,3.0.0b12,59.888666859590984,
M004C,faces/M004C.jpg,6.470262,Trustworthy,Stole money and jewelry from the relatives he was living with,supportive,mismatch,incongruent,,0,5,5,0,,,,,,,,,,,,,,,,,,,,,5,082,2019_Oct_17_1358,trustSTIs,3.0.0b12,59.888666859590984,
M022C,faces/M022C.jpg,5.7741936,Trustworthy,Was demeaning and cursed out a co-worker for their incompetence,demeaning,explicit,incongruent,,0,6,6,4,,,,,,,,,,,,,,,,,,,,,5,082,2019_Oct_17_1358,trustSTIs,3.0.0b12,59.888666859590984,
M013C,faces/M013C.jpg,6.035534283,Trustworthy,Pushed a lost child out of their way and ignored her cries for help,attentive,mismatch,incongruent,,0,7,7,2,,,,,,,,,,,,,,,,,,,,,5,082,2019_Oct_17_1358,trustSTIs,3.0.0b12,59.888666859590984,
M027C,faces/M027C.jpg,4.682963673,Untrustworthy,Was cold and ignored a man bleeding on the sidewalk,cold,explicit,congruent,,0,8,8,23,,,,,,,,,,,,,,,,,,,,,5,082,2019_Oct_17_1358,trustSTIs,3.0.0b12,59.888666859590984,
M067C,faces/M067C.jpg,4.9541331,Untrustworthy,Woke up a woman passed out on the subway and made sure that she got home safely,mean,mismatch,incongruent,,0,9,9,29,,,,,,,,,,,,,,,,,,,,,5,082,2019_Oct_17_1358,trustSTIs,3.0.0b12,59.888666859590984,
M014C,faces/M014C.jpg,5.649445575,Trustworthy,Was unfair and ridiculed people behind their backs,unfair,explicit,incongruent,,0,10,10,3,,,,,,,,,,,,,,,,,,,,,5,082,2019_Oct_17_1358,trustSTIs,3.0.0b12,59.888666859590984,
M042C,faces/M042C.jpg,5.596522235,Trustworthy,Heckled a woman speaking on human rights,sexist,implicit,incongruent,,0,11,11,8,,,,,,,,,,,,,,,,,,,,,5,082,2019_Oct_17_1358,trustSTIs,3.0.0b12,59.888666859590984,
M019C,faces/M019C.jpg,3.257056473,Untrustworthy,Swore at a cab driver and ran away without paying,trustworthy,mismatch,congruent,,0,12,12,20,,,,,,,,,,,,,,,,,,,,,5,082,2019_Oct_17_1358,trustSTIs,3.0.0b12,59.888666859590984,
M071C,faces/M071C.jpg,5.923639075,Trustworthy,Was responsible and got up early to drive a roommate to the airport,responsible,explicit,congruent,,0,13,13,14,,,,,,,,,,,,,,,,,,,,,5,082,2019_Oct_17_1358,trustSTIs,3.0.0b12,59.888666859590984,
M092C,faces/M092C.jpg,4.779737903,Untrustworthy,Took care of their parent during an illness,compassionate,implicit,incongruent,,0,14,14,35,,,,,,,,,,,,,,,,,,,,,5,082,2019_Oct_17_1358,trustSTIs,3.0.0b12,59.888666859590984,
M066C,faces/M066C.jpg,4.707409208,Untrustworthy,Helped a man in a wheelchair cross a busy intersection,selfish,mismatch,incongruent,,0,15,15,28,,,,,,,,,,,,,,,,,,,,,5,082,2019_Oct_17_1358,trustSTIs,3.0.0b12,59.888666859590984,
M077C,faces/M077C.jpg,6.415070475,Trustworthy,Gave up seat on the bus to a pregnant lady,polite,implicit,congruent,,0,16,16,15,,,,,,,,,,,,,,,,,,,,,5,082,2019_Oct_17_1358,trustSTIs,3.0.0b12,59.888666859590984,
M058C,faces/M058C.jpg,6.1066028,Trustworthy,Was reliable and paid a friend back the money they owed within only a few days,reliable,explicit,congruent,,0,17,17,12,,,,,,,,,,,,,,,,,,,,,5,082,2019_Oct_17_1358,trustSTIs,3.0.0b12,59.888666859590984,
M032C,faces/M032C.jpg,4.74092746,Untrustworthy,Stole and used their mother's prescription medication,untrustworthy,implicit,congruent,,0,18,18,24,,,,,,,,,,,,,,,,,,,,,5,082,2019_Oct_17_1358,trustSTIs,3.0.0b12,59.888666859590984,
M072C,faces/M072C.jpg,4.8732359,Untrustworthy,Was kind and helped a lost child find his parents at a mall,kind,explicit,incongruent,,0,19,19,31,,,,,,,,,,,,,,,,,,,,,5,082,2019_Oct_17_1358,trustSTIs,3.0.0b12,59.888666859590984,
M026C,faces/M026C.jpg,5.823084825,Trustworthy,Was thieving and took a ten-dollar bill from their roommate's dresser without asking,thieving,explicit,incongruent,,0,20,20,5,,,,,,,,,,,,,,,,,,,,,5,082,2019_Oct_17_1358,trustSTIs,3.0.0b12,59.888666859590984,
M049C,faces/M049C.jpg,6.053175375,Trustworthy,Took a friend out for a beer to celebrate his promotion,greedy,mismatch,congruent,,0,21,21,9,,,,,,,,,,,,,,,,,,,,,5,082,2019_Oct_17_1358,trustSTIs,3.0.0b12,59.888666859590984,
M050C,faces/M050C.jpg,5.690020225,Trustworthy,Organized a group to renovate some run-down houses,immoral,mismatch,congruent,,0,22,22,10,,,,,,,,,,,,,,,,,,,,,5,082,2019_Oct_17_1358,trustSTIs,3.0.0b12,59.888666859590984,
M070C,faces/M070C.jpg,4.7144657,Untrustworthy,Was heroic and saved a person from drowning,heroic,explicit,incongruent,,0,23,23,30,,,,,,,,,,,,,,,,,,,,,5,082,2019_Oct_17_1358,trustSTIs,3.0.0b12,59.888666859590984,
M031C,faces/M031C.jpg,5.921622915,Trustworthy,Went out of their way to ignore some new coworkers for several weeks,arrogant,implicit,incongruent,,0,24,24,7,,,,,,,,,,,,,,,,,,,,,5,082,2019_Oct_17_1358,trustSTIs,3.0.0b12,59.888666859590984,
M076C,faces/M076C.jpg,4.724042295,Untrustworthy,Was giving and paid for a taxi to take an intoxicated man to his residence,giving,explicit,incongruent,,0,25,25,32,,,,,,,,,,,,,,,,,,,,,5,082,2019_Oct_17_1358,trustSTIs,3.0.0b12,59.888666859590984,
M051C,faces/M051C.jpg,5.67212695,Trustworthy,Kept the music down for their roommates,cruel,mismatch,congruent,,0,26,26,11,,,,,,,,,,,,,,,,,,,,,5,082,2019_Oct_17_1358,trustSTIs,3.0.0b12,59.888666859590984,
M008C,faces/M008C.jpg,4.033770203,Untrustworthy,Drove their car the wrong way down a one-way street,selfless,mismatch,congruent,,0,27,27,18,,,,,,,,,,,,,,,,,,,,,5,082,2019_Oct_17_1358,trustSTIs,3.0.0b12,59.888666859590984,
M037C,faces/M037C.jpg,4.31502017,Untrustworthy,Hit a car and left the scene of the accident,cowardly,implicit,congruent,,0,28,28,26,,,,,,,,,,,,,,,,,,,,,5,082,2019_Oct_17_1358,trustSTIs,3.0.0b12,59.888666859590984,
M020C,faces/M020C.jpg,4.750000023,Untrustworthy,Was vain and was very concerned about their personal appearance,vain,explicit,congruent,,0,29,29,21,,,,,,,,,,,,,,,,,,,,,5,082,2019_Oct_17_1358,trustSTIs,3.0.0b12,59.888666859590984,
M017C,faces/M017C.jpg,4.724042335,Untrustworthy,Could not remember the birthdays of their family members,caring,mismatch,congruent,,0,30,30,19,,,,,,,,,,,,,,,,,,,,,5,082,2019_Oct_17_1358,trustSTIs,3.0.0b12,59.888666859590984,
M029C,faces/M029C.jpg,5.814516125,Trustworthy,Told a racist joke at a party,callous,implicit,incongruent,,0,31,31,6,,,,,,,,,,,,,,,,,,,,,5,082,2019_Oct_17_1358,trustSTIs,3.0.0b12,59.888666859590984,
M021C,faces/M021C.jpg,4.828377083,Untrustworthy,Was dishonest and cheated on their spouse while on a business trip,dishonest,explicit,congruent,,0,32,32,22,,,,,,,,,,,,,,,,,,,,,5,082,2019_Oct_17_1358,trustSTIs,3.0.0b12,59.888666859590984,
M086C,faces/M086C.jpg,4.845010075,Untrustworthy,Returned a lost wallet,honest,implicit,incongruent,,0,33,33,34,,,,,,,,,,,,,,,,,,,,,5,082,2019_Oct_17_1358,trustSTIs,3.0.0b12,59.888666859590984,
M033C,faces/M033C.jpg,4.943548355,Untrustworthy,Insulted a stranger by making a racial slur,insensitive,implicit,congruent,,0,34,34,25,,,,,,,,,,,,,,,,,,,,,5,082,2019_Oct_17_1358,trustSTIs,3.0.0b12,59.888666859590984,
M061C,faces/M061C.jpg,4.652721745,Untrustworthy,Volunteered at children's hospital,careless,mismatch,incongruent,,0,35,35,27,,,,,,,,,,,,,,,,,,,,,5,082,2019_Oct_17_1358,trustSTIs,3.0.0b12,59.888666859590984,
,,,,,,,,54 ÷ 9 = ?,,,,,0,0,0,4,,,,,['space'],[4.17486310005188],,,,,,,,,,,5,082,2019_Oct_17_1358,trustSTIs,3.0.0b12,59.888666859590984,
,,,,,,,,(5 + 7) ÷ 4 = ?,,,,,0,1,1,1,,,,,['space'],[2.0205814000219107],,,,,,,,,,,5,082,2019_Oct_17_1358,trustSTIs,3.0.0b12,59.888666859590984,
,,,,,,,,169 ÷ 13 = ?,,,,,0,2,2,8,,,,,['space'],[3.339902799576521],,,,,,,,,,,5,082,2019_Oct_17_1358,trustSTIs,3.0.0b12,59.888666859590984,
,,,,,,,,(24 ÷ 3) x 5 = ?,,,,,0,3,3,5,,,,,['space'],[2.82259470038116],,,,,,,,,,,5,082,2019_Oct_17_1358,trustSTIs,3.0.0b12,59.888666859590984,
,,,,,,,,(5 x 4) - 12 = ?,,,,,0,4,4,9,,,,,['space'],[2.638287900015712],,,,,,,,,,,5,082,2019_Oct_17_1358,trustSTIs,3.0.0b12,59.888666859590984,
,,,,,,,,√100 = ?,,,,,0,5,5,3,,,,,['space'],[1.6702620014548302],,,,,,,,,,,5,082,2019_Oct_17_1358,trustSTIs,3.0.0b12,59.888666859590984,
,,,,,,,,√49 x 7 = ?,,,,,0,6,6,6,,,,,['space'],[2.688857698813081],,,,,,,,,,,5,082,2019_Oct_17_1358,trustSTIs,3.0.0b12,59.888666859590984,
,,,,,,,,3² = ?,,,,,0,7,7,0,,,,,['space'],[1.4361370988190174],,,,,,,,,,,5,082,2019_Oct_17_1358,trustSTIs,3.0.0b12,59.888666859590984,
,,,,,,,,7³ = ?,,,,,0,8,8,7,,,,,['space'],[3.8407727014273405],,,,,,,,,,,5,082,2019_Oct_17_1358,trustSTIs,3.0.0b12,59.888666859590984,
,,,,,,,,6 * 9 = ?,,,,,0,9,9,2,,,,,['space'],[1.5701997000724077],,,,,,,,,,,5,082,2019_Oct_17_1358,trustSTIs,3.0.0b12,59.888666859590984,
M026C,faces/M026C.jpg,5.823084825,Trustworthy,Was thieving and took a ten-dollar bill from their roommate's dresser without asking,thieving,explicit,incongruent,,,,,,,,,,0,0,0,5,,,left,3.5402338989079,,,,,,,,,5,082,2019_Oct_17_1358,trustSTIs,3.0.0b12,59.888666859590984,
M071C,faces/M071C.jpg,5.923639075,Trustworthy,Was responsible and got up early to drive a roommate to the airport,responsible,explicit,congruent,,,,,,,,,,0,1,1,14,,,left,2.6051163990050554,,,,,,,,,5,082,2019_Oct_17_1358,trustSTIs,3.0.0b12,59.888666859590984,
M017C,faces/M017C.jpg,4.724042335,Untrustworthy,Could not remember the birthdays of their family members,caring,mismatch,congruent,,,,,,,,,,0,2,2,19,,,right,1.0189471002668142,,,,,,,,,5,082,2019_Oct_17_1358,trustSTIs,3.0.0b12,59.888666859590984,
M049C,faces/M049C.jpg,6.053175375,Trustworthy,Took a friend out for a beer to celebrate his promotion,greedy,mismatch,congruent,,,,,,,,,,0,3,3,9,,,right,0.8018910009413958,,,,,,,,,5,082,2019_Oct_17_1358,trustSTIs,3.0.0b12,59.888666859590984,
M037C,faces/M037C.jpg,4.31502017,Untrustworthy,Hit a car and left the scene of the accident,cowardly,implicit,congruent,,,,,,,,,,0,4,4,26,,,left,1.4696279000490904,,,,,,,,,5,082,2019_Oct_17_1358,trustSTIs,3.0.0b12,59.888666859590984,
M092C,faces/M092C.jpg,4.779737903,Untrustworthy,Took care of their parent during an illness,compassionate,implicit,incongruent,,,,,,,,,,0,5,5,35,,,left,0.6515874993056059,,,,,,,,,5,082,2019_Oct_17_1358,trustSTIs,3.0.0b12,59.888666859590984,
M033C,faces/M033C.jpg,4.943548355,Untrustworthy,Insulted a stranger by making a racial slur,insensitive,implicit,congruent,,,,,,,,,,0,6,6,25,,,right,0.4844959005713463,,,,,,,,,5,082,2019_Oct_17_1358,trustSTIs,3.0.0b12,59.888666859590984,
M062C,faces/M062C.jpg,5.597530268,Trustworthy,Was generous and tutored a struggling classmate for free,generous,explicit,congruent,,,,,,,,,,0,7,7,13,,,left,0.7016215994954109,,,,,,,,,5,082,2019_Oct_17_1358,trustSTIs,3.0.0b12,59.888666859590984,
M066C,faces/M066C.jpg,4.707409208,Untrustworthy,Helped a man in a wheelchair cross a busy intersection,selfish,mismatch,incongruent,,,,,,,,,,0,8,8,28,,,right,1.0188636016100645,,,,,,,,,5,082,2019_Oct_17_1358,trustSTIs,3.0.0b12,59.888666859590984,
M087C,faces/M087C.jpg,6.061491925,Trustworthy,Held the doors to the subway for an elderly woman with a walker,respectful,implicit,congruent,,,,,,,,,,0,9,9,16,,,left,0.6682327017188072,,,,,,,,,5,082,2019_Oct_17_1358,trustSTIs,3.0.0b12,59.888666859590984,
M072C,faces/M072C.jpg,4.8732359,Untrustworthy,Was kind and helped a lost child find his parents at a mall,kind,explicit,incongruent,,,,,,,,,,0,10,10,31,,,left,0.8519643004983664,,,,,,,,,5,082,2019_Oct_17_1358,trustSTIs,3.0.0b12,59.888666859590984,
M077C,faces/M077C.jpg,6.415070475,Trustworthy,Gave up seat on the bus to a pregnant lady,polite,implicit,congruent,,,,,,,,,,0,11,11,15,,,right,0.2174650002270937,,,,,,,,,5,082,2019_Oct_17_1358,trustSTIs,3.0.0b12,59.888666859590984,
M032C,faces/M032C.jpg,4.74092746,Untrustworthy,Stole and used their mother's prescription medication,untrustworthy,implicit,congruent,,,,,,,,,,0,12,12,24,,,right,0.6515404004603624,,,,,,,,,5,082,2019_Oct_17_1358,trustSTIs,3.0.0b12,59.888666859590984,
M081C,faces/M081C.jpg,4.350806448,Untrustworthy,Provided food and clothing for flood victims,warm,implicit,incongruent,,,,,,,,,,0,13,13,33,,,right,1.0355514008551836,,,,,,,,,5,082,2019_Oct_17_1358,trustSTIs,3.0.0b12,59.888666859590984,
M021C,faces/M021C.jpg,4.828377083,Untrustworthy,Was dishonest and cheated on their spouse while on a business trip,dishonest,explicit,congruent,,,,,,,,,,0,14,14,22,,,right,0.7683266997337341,,,,,,,,,5,082,2019_Oct_17_1358,trustSTIs,3.0.0b12,59.888666859590984,
M008C,faces/M008C.jpg,4.033770203,Untrustworthy,Drove their car the wrong way down a one-way street,selfless,mismatch,congruent,,,,,,,,,,0,15,15,18,,,left,1.2693419996649027,,,,,,,,,5,082,2019_Oct_17_1358,trustSTIs,3.0.0b12,59.888666859590984,
M076C,faces/M076C.jpg,4.724042295,Untrustworthy,Was giving and paid for a taxi to take an intoxicated man to his residence,giving,explicit,incongruent,,,,,,,,,,0,16,16,32,,,left,0.7182736005634069,,,,,,,,,5,082,2019_Oct_17_1358,trustSTIs,3.0.0b12,59.888666859590984,
M027C,faces/M027C.jpg,4.682963673,Untrustworthy,Was cold and ignored a man bleeding on the sidewalk,cold,explicit,congruent,,,,,,,,,,0,17,17,23,,,left,0.8017922006547451,,,,,,,,,5,082,2019_Oct_17_1358,trustSTIs,3.0.0b12,59.888666859590984,
M029C,faces/M029C.jpg,5.814516125,Trustworthy,Told a racist joke at a party,callous,implicit,incongruent,,,,,,,,,,0,18,18,6,,,right,0.3510379996150732,,,,,,,,,5,082,2019_Oct_17_1358,trustSTIs,3.0.0b12,59.888666859590984,
M051C,faces/M051C.jpg,5.67212695,Trustworthy,Kept the music down for their roommates,cruel,mismatch,congruent,,,,,,,,,,0,19,19,11,,,right,1.0188798997551203,,,,,,,,,5,082,2019_Oct_17_1358,trustSTIs,3.0.0b12,59.888666859590984,
M020C,faces/M020C.jpg,4.750000023,Untrustworthy,Was vain and was very concerned about their personal appearance,vain,explicit,congruent,,,,,,,,,,0,20,20,21,,,left,0.5846870001405478,,,,,,,,,5,082,2019_Oct_17_1358,trustSTIs,3.0.0b12,59.888666859590984,
M019C,faces/M019C.jpg,3.257056473,Untrustworthy,Swore at a cab driver and ran away without paying,trustworthy,mismatch,congruent,,,,,,,,,,0,21,21,20,,,right,0.4344246983528137,,,,,,,,,5,082,2019_Oct_17_1358,trustSTIs,3.0.0b12,59.888666859590984,
M013C,faces/M013C.jpg,6.035534283,Trustworthy,Pushed a lost child out of their way and ignored her cries for help,attentive,mismatch,incongruent,,,,,,,,,,0,22,22,2,,,left,0.4343862999230623,,,,,,,,,5,082,2019_Oct_17_1358,trustSTIs,3.0.0b12,59.888666859590984,
M050C,faces/M050C.jpg,5.690020225,Trustworthy,Organized a group to renovate some run-down houses,immoral,mismatch,congruent,,,,,,,,,,0,23,23,10,,,left,0.30080669932067394,,,,,,,,,5,082,2019_Oct_17_1358,trustSTIs,3.0.0b12,59.888666859590984,
M042C,faces/M042C.jpg,5.596522235,Trustworthy,Heckled a woman speaking on human rights,sexist,implicit,incongruent,,,,,,,,,,0,24,24,8,,,right,0.45113589987158775,,,,,,,,,5,082,2019_Oct_17_1358,trustSTIs,3.0.0b12,59.888666859590984,
M093C,faces/M093C.jpg,6.071068575,Trustworthy,Visited a sick friend in the hospital,dependable,implicit,congruent,,,,,,,,,,0,25,25,17,,,right,0.36769150011241436,,,,,,,,,5,082,2019_Oct_17_1358,trustSTIs,3.0.0b12,59.888666859590984,
M061C,faces/M061C.jpg,4.652721745,Untrustworthy,Volunteered at children's hospital,careless,mismatch,incongruent,,,,,,,,,,0,26,26,27,,,left,0.5680183004587889,,,,,,,,,5,082,2019_Oct_17_1358,trustSTIs,3.0.0b12,59.888666859590984,
M067C,faces/M067C.jpg,4.9541331,Untrustworthy,Woke up a woman passed out on the subway and made sure that she got home safely,mean,mismatch,incongruent,,,,,,,,,,0,27,27,29,,,left,1.6700506005436182,,,,,,,,,5,082,2019_Oct_17_1358,trustSTIs,3.0.0b12,59.888666859590984,
M004C,faces/M004C.jpg,6.470262,Trustworthy,Stole money and jewelry from the relatives he was living with,supportive,mismatch,incongruent,,,,,,,,,,0,28,28,0,,,right,0.384349700063467,,,,,,,,,5,082,2019_Oct_17_1358,trustSTIs,3.0.0b12,59.888666859590984,
M022C,faces/M022C.jpg,5.7741936,Trustworthy,Was demeaning and cursed out a co-worker for their incompetence,demeaning,explicit,incongruent,,,,,,,,,,0,29,29,4,,,left,0.6849042009562254,,,,,,,,,5,082,2019_Oct_17_1358,trustSTIs,3.0.0b12,59.888666859590984,
M058C,faces/M058C.jpg,6.1066028,Trustworthy,Was reliable and paid a friend back the money they owed within only a few days,reliable,explicit,congruent,,,,,,,,,,0,30,30,12,,,left,0.6850699000060558,,,,,,,,,5,082,2019_Oct_17_1358,trustSTIs,3.0.0b12,59.888666859590984,
M086C,faces/M086C.jpg,4.845010075,Untrustworthy,Returned a lost wallet,honest,implicit,incongruent,,,,,,,,,,0,31,31,34,,,left,0.2841893006116152,,,,,,,,,5,082,2019_Oct_17_1358,trustSTIs,3.0.0b12,59.888666859590984,
M014C,faces/M014C.jpg,5.649445575,Trustworthy,Was unfair and ridiculed people behind their backs,unfair,explicit,incongruent,,,,,,,,,,0,32,32,3,,,right,0.3174834009259939,,,,,,,,,5,082,2019_Oct_17_1358,trustSTIs,3.0.0b12,59.888666859590984,
M031C,faces/M031C.jpg,5.921622915,Trustworthy,Went out of their way to ignore some new coworkers for several weeks,arrogant,implicit,incongruent,,,,,,,,,,0,33,33,7,,,right,0.6182026006281376,,,,,,,,,5,082,2019_Oct_17_1358,trustSTIs,3.0.0b12,59.888666859590984,
M070C,faces/M070C.jpg,4.7144657,Untrustworthy,Was heroic and saved a person from drowning,heroic,explicit,incongruent,,,,,,,,,,0,34,34,30,,,right,0.36768809892237186,,,,,,,,,5,082,2019_Oct_17_1358,trustSTIs,3.0.0b12,59.888666859590984,
M006C,faces/M006C.jpg,6.0640122,Trustworthy,Attempted to rape a woman who was walking down a dark street,hardworking,mismatch,incongruent,,,,,,,,,,0,35,35,1,,,left,0.267339501529932,,,,,,,,,5,082,2019_Oct_17_1358,trustSTIs,3.0.0b12,59.888666859590984,
,,,,,,,,,,,,,,,,,,,,,,,,,20,6.362,,,,,,,5,082,2019_Oct_17_1358,trustSTIs,3.0.0b12,59.888666859590984,
,,,,,,,,,,,,,,,,,,,,,,,,,,,right,3.7904417999088764,,,,,5,082,2019_Oct_17_1358,trustSTIs,3.0.0b12,59.888666859590984,
,,,,,,,,,,,,,,,,,,,,,,,,,,,,,right,4.508800499141216,,,5,082,2019_Oct_17_1358,trustSTIs,3.0.0b12,59.888666859590984,
,,,,,,,,,,,,,,,,,,,,,,,,,,,,,,,a,3.339887799695134,5,082,2019_Oct_17_1358,trustSTIs,3.0.0b12,59.888666859590984,
