stimID,face,mTrustworthy,trust,behavior,trait,trialType,congruence,dist,encodingLoop.thisRepN,encodingLoop.thisTrialN,encodingLoop.thisN,encodingLoop.thisIndex,distLoop.thisRepN,distLoop.thisTrialN,distLoop.thisN,distLoop.thisIndex,recognitionLoop.thisRepN,recognitionLoop.thisTrialN,recognitionLoop.thisN,recognitionLoop.thisIndex,distAnswers.keys,distAnswers.rt,keyResp.keys,keyResp.rt,ageRate.response,ageRate.rt,eflResp.keys,eflResp.rt,genderResp.keys,genderResp.rt,ethResp.keys,ethResp.rt,condition,participant,date,expName,psychopyVersion,frameRate
M037C,faces/M037C.jpg,4.31502017,Untrustworthy,Hit a car and left the scene of the accident,compassionate,mismatch,congruent,,0,0,0,26,,,,,,,,,,,,,,,,,,,,,4,93,2019_Oct_21_1157,trustSTIs,3.0.0b12,59.88163796
M029C,faces/M029C.jpg,5.814516125,Trustworthy,Told a racist joke at a party,polite,mismatch,incongruent,,0,1,1,6,,,,,,,,,,,,,,,,,,,,,4,93,2019_Oct_21_1157,trustSTIs,3.0.0b12,59.88163796
M092C,faces/M092C.jpg,4.779737903,Untrustworthy,Took care of their parent during an illness,cowardly,mismatch,incongruent,,0,2,2,35,,,,,,,,,,,,,,,,,,,,,4,93,2019_Oct_21_1157,trustSTIs,3.0.0b12,59.88163796
M087C,faces/M087C.jpg,6.061491925,Trustworthy,Held the doors to the subway for an elderly woman with a walker,arrogant,mismatch,congruent,,0,3,3,16,,,,,,,,,,,,,,,,,,,,,4,93,2019_Oct_21_1157,trustSTIs,3.0.0b12,59.88163796
M033C,faces/M033C.jpg,4.943548355,Untrustworthy,Insulted a stranger by making a racial slur,honest,mismatch,congruent,,0,4,4,25,,,,,,,,,,,,,,,,,,,,,4,93,2019_Oct_21_1157,trustSTIs,3.0.0b12,59.88163796
M013C,faces/M013C.jpg,6.035534283,Trustworthy,Was cruel and pushed a lost child out of their way and ignored her cries for help,cruel,explicit,incongruent,,0,5,5,2,,,,,,,,,,,,,,,,,,,,,4,93,2019_Oct_21_1157,trustSTIs,3.0.0b12,59.88163796
M019C,faces/M019C.jpg,3.257056473,Untrustworthy,Was mean and swore at a cab driver and ran away without paying,mean,explicit,congruent,,0,6,6,20,,,,,,,,,,,,,,,,,,,,,4,93,2019_Oct_21_1157,trustSTIs,3.0.0b12,59.88163796
M072C,faces/M072C.jpg,4.8732359,Untrustworthy,Helped a lost child find his parents at a mall,kind,implicit,incongruent,,0,7,7,31,,,,,,,,,,,,,,,,,,,,,4,93,2019_Oct_21_1157,trustSTIs,3.0.0b12,59.88163796
M021C,faces/M021C.jpg,4.828377083,Untrustworthy,Cheated on their spouse while on a business trip,dishonest,implicit,congruent,,0,8,8,22,,,,,,,,,,,,,,,,,,,,,4,93,2019_Oct_21_1157,trustSTIs,3.0.0b12,59.88163796
M022C,faces/M022C.jpg,5.7741936,Trustworthy,Cursed out a co-worker for their incompetence,demeaning,implicit,incongruent,,0,9,9,4,,,,,,,,,,,,,,,,,,,,,4,93,2019_Oct_21_1157,trustSTIs,3.0.0b12,59.88163796
M026C,faces/M026C.jpg,5.823084825,Trustworthy,Took a ten-dollar bill from their roommate's dresser without asking,thieving,implicit,incongruent,,0,10,10,5,,,,,,,,,,,,,,,,,,,,,4,93,2019_Oct_21_1157,trustSTIs,3.0.0b12,59.88163796
M062C,faces/M062C.jpg,5.597530268,Trustworthy,Tutored a struggling classmate for free,generous,implicit,congruent,,0,11,11,13,,,,,,,,,,,,,,,,,,,,,4,93,2019_Oct_21_1157,trustSTIs,3.0.0b12,59.88163796
M081C,faces/M081C.jpg,4.350806448,Untrustworthy,Provided food and clothing for flood victims,untrustworthy,mismatch,incongruent,,0,12,12,33,,,,,,,,,,,,,,,,,,,,,4,93,2019_Oct_21_1157,trustSTIs,3.0.0b12,59.88163796
M017C,faces/M017C.jpg,4.724042335,Untrustworthy,Was selfish and could not remember the birthdays of their family members,selfish,explicit,congruent,,0,13,13,19,,,,,,,,,,,,,,,,,,,,,4,93,2019_Oct_21_1157,trustSTIs,3.0.0b12,59.88163796
M077C,faces/M077C.jpg,6.415070475,Trustworthy,Gave up seat on the bus to a pregnant lady,callous,mismatch,congruent,,0,14,14,15,,,,,,,,,,,,,,,,,,,,,4,93,2019_Oct_21_1157,trustSTIs,3.0.0b12,59.88163796
M008C,faces/M008C.jpg,4.033770203,Untrustworthy,Was careless and drove their car the wrong way down a one-way street,careless,explicit,congruent,,0,15,15,18,,,,,,,,,,,,,,,,,,,,,4,93,2019_Oct_21_1157,trustSTIs,3.0.0b12,59.88163796
M061C,faces/M061C.jpg,4.652721745,Untrustworthy,Was selfless and volunteered at children's hospital,selfless,explicit,incongruent,,0,16,16,27,,,,,,,,,,,,,,,,,,,,,4,93,2019_Oct_21_1157,trustSTIs,3.0.0b12,59.88163796
M093C,faces/M093C.jpg,6.071068575,Trustworthy,Visited a sick friend in the hospital,sexist,mismatch,congruent,,0,17,17,17,,,,,,,,,,,,,,,,,,,,,4,93,2019_Oct_21_1157,trustSTIs,3.0.0b12,59.88163796
M027C,faces/M027C.jpg,4.682963673,Untrustworthy,Ignored a man bleeding on the sidewalk,cold,implicit,congruent,,0,18,18,23,,,,,,,,,,,,,,,,,,,,,4,93,2019_Oct_21_1157,trustSTIs,3.0.0b12,59.88163796
M049C,faces/M049C.jpg,6.053175375,Trustworthy,Was supportive and took a friend out for a beer to celebrate his promotion,supportive,explicit,congruent,,0,19,19,9,,,,,,,,,,,,,,,,,,,,,4,93,2019_Oct_21_1157,trustSTIs,3.0.0b12,59.88163796
M051C,faces/M051C.jpg,5.67212695,Trustworthy,Was attentive and kept the music down for their roommates,attentive,explicit,congruent,,0,20,20,11,,,,,,,,,,,,,,,,,,,,,4,93,2019_Oct_21_1157,trustSTIs,3.0.0b12,59.88163796
M050C,faces/M050C.jpg,5.690020225,Trustworthy,Was hardworking and organized a group to renovate some run-down houses,hardworking,explicit,congruent,,0,21,21,10,,,,,,,,,,,,,,,,,,,,,4,93,2019_Oct_21_1157,trustSTIs,3.0.0b12,59.88163796
M032C,faces/M032C.jpg,4.74092746,Untrustworthy,Stole and used their mother's prescription medication,warm,mismatch,congruent,,0,22,22,24,,,,,,,,,,,,,,,,,,,,,4,93,2019_Oct_21_1157,trustSTIs,3.0.0b12,59.88163796
M020C,faces/M020C.jpg,4.750000023,Untrustworthy,Was very concerned about their personal appearance,vain,implicit,congruent,,0,23,23,21,,,,,,,,,,,,,,,,,,,,,4,93,2019_Oct_21_1157,trustSTIs,3.0.0b12,59.88163796
M086C,faces/M086C.jpg,4.845010075,Untrustworthy,Returned a lost wallet,insensitive,mismatch,incongruent,,0,24,24,34,,,,,,,,,,,,,,,,,,,,,4,93,2019_Oct_21_1157,trustSTIs,3.0.0b12,59.88163796
M058C,faces/M058C.jpg,6.1066028,Trustworthy,Paid a friend back the money they owed within only a few days,reliable,implicit,congruent,,0,25,25,12,,,,,,,,,,,,,,,,,,,,,4,93,2019_Oct_21_1157,trustSTIs,3.0.0b12,59.88163796
M066C,faces/M066C.jpg,4.707409208,Untrustworthy,Was caring and helped a man in a wheelchair cross a busy intersection,caring,explicit,incongruent,,0,26,26,28,,,,,,,,,,,,,,,,,,,,,4,93,2019_Oct_21_1157,trustSTIs,3.0.0b12,59.88163796
M006C,faces/M006C.jpg,6.0640122,Trustworthy,Was immoral and attempted to rape a woman who was walking down a dark street,immoral,explicit,incongruent,,0,27,27,1,,,,,,,,,,,,,,,,,,,,,4,93,2019_Oct_21_1157,trustSTIs,3.0.0b12,59.88163796
M076C,faces/M076C.jpg,4.724042295,Untrustworthy,Paid for a taxi to take an intoxicated man to his residence,giving,implicit,incongruent,,0,28,28,32,,,,,,,,,,,,,,,,,,,,,4,93,2019_Oct_21_1157,trustSTIs,3.0.0b12,59.88163796
M031C,faces/M031C.jpg,5.921622915,Trustworthy,Went out of their way to ignore some new coworkers for several weeks,respectful,mismatch,incongruent,,0,29,29,7,,,,,,,,,,,,,,,,,,,,,4,93,2019_Oct_21_1157,trustSTIs,3.0.0b12,59.88163796
M014C,faces/M014C.jpg,5.649445575,Trustworthy,Ridiculed people behind their backs,unfair,implicit,incongruent,,0,30,30,3,,,,,,,,,,,,,,,,,,,,,4,93,2019_Oct_21_1157,trustSTIs,3.0.0b12,59.88163796
M067C,faces/M067C.jpg,4.9541331,Untrustworthy,Was trustworthy and woke up a woman passed out on the subway and made sure that she got home safely,trustworthy,explicit,incongruent,,0,31,31,29,,,,,,,,,,,,,,,,,,,,,4,93,2019_Oct_21_1157,trustSTIs,3.0.0b12,59.88163796
M070C,faces/M070C.jpg,4.7144657,Untrustworthy,Saved a person from drowning,heroic,implicit,incongruent,,0,32,32,30,,,,,,,,,,,,,,,,,,,,,4,93,2019_Oct_21_1157,trustSTIs,3.0.0b12,59.88163796
M004C,faces/M004C.jpg,6.470262,Trustworthy,Was greedy and stole money and jewelry from the relatives he was living with,greedy,explicit,incongruent,,0,33,33,0,,,,,,,,,,,,,,,,,,,,,4,93,2019_Oct_21_1157,trustSTIs,3.0.0b12,59.88163796
M071C,faces/M071C.jpg,5.923639075,Trustworthy,Got up early to drive a roommate to the airport,responsible,implicit,congruent,,0,34,34,14,,,,,,,,,,,,,,,,,,,,,4,93,2019_Oct_21_1157,trustSTIs,3.0.0b12,59.88163796
M042C,faces/M042C.jpg,5.596522235,Trustworthy,Heckled a woman speaking on human rights,dependable,mismatch,incongruent,,0,35,35,8,,,,,,,,,,,,,,,,,,,,,4,93,2019_Oct_21_1157,trustSTIs,3.0.0b12,59.88163796
,,,,,,,,3² = ?,,,,,0,0,0,0,,,,,['space'],[15.245101599954069],,,,,,,,,,,4,93,2019_Oct_21_1157,trustSTIs,3.0.0b12,59.88163796
,,,,,,,,7³ = ?,,,,,0,1,1,7,,,,,['space'],[51.89549000002444],,,,,,,,,,,4,93,2019_Oct_21_1157,trustSTIs,3.0.0b12,59.88163796
,,,,,,,,6 * 9 = ?,,,,,0,2,2,2,,,,,['space'],[3.723556200042367],,,,,,,,,,,4,93,2019_Oct_21_1157,trustSTIs,3.0.0b12,59.88163796
,,,,,,,,169 ÷ 13 = ?,,,,,0,3,3,8,,,,,['space'],[39.907052899943665],,,,,,,,,,,4,93,2019_Oct_21_1157,trustSTIs,3.0.0b12,59.88163796
,,,,,,,,√100 = ?,,,,,0,4,4,3,,,,,['space'],[2.9888465001713485],,,,,,,,,,,4,93,2019_Oct_21_1157,trustSTIs,3.0.0b12,59.88163796
,,,,,,,,(24 ÷ 3) x 5 = ?,,,,,0,5,5,5,,,,,['space'],[3.5737526000011712],,,,,,,,,,,4,93,2019_Oct_21_1157,trustSTIs,3.0.0b12,59.88163796
,,,,,,,,(5 + 7) ÷ 4 = ?,,,,,0,6,6,1,,,,,['space'],[13.374891699990258],,,,,,,,,,,4,93,2019_Oct_21_1157,trustSTIs,3.0.0b12,59.88163796
,,,,,,,,(5 x 4) - 12 = ?,,,,,0,7,7,9,,,,,['space'],[13.708710599923506],,,,,,,,,,,4,93,2019_Oct_21_1157,trustSTIs,3.0.0b12,59.88163796
,,,,,,,,√49 x 7 = ?,,,,,0,8,8,6,,,,,['space'],[12.222735000075772],,,,,,,,,,,4,93,2019_Oct_21_1157,trustSTIs,3.0.0b12,59.88163796
,,,,,,,,54 ÷ 9 = ?,,,,,0,9,9,4,,,,,['space'],[12.539951900020242],,,,,,,,,,,4,93,2019_Oct_21_1157,trustSTIs,3.0.0b12,59.88163796
M072C,faces/M072C.jpg,4.8732359,Untrustworthy,Helped a lost child find his parents at a mall,kind,implicit,incongruent,,,,,,,,,,0,0,0,31,,,left,6.2283418,,,,,,,,,4,93,2019_Oct_21_1157,trustSTIs,3.0.0b12,59.88163796
M093C,faces/M093C.jpg,6.071068575,Trustworthy,Visited a sick friend in the hospital,sexist,mismatch,congruent,,,,,,,,,,0,1,1,17,,,right,3.4732614,,,,,,,,,4,93,2019_Oct_21_1157,trustSTIs,3.0.0b12,59.88163796
M033C,faces/M033C.jpg,4.943548355,Untrustworthy,Insulted a stranger by making a racial slur,honest,mismatch,congruent,,,,,,,,,,0,2,2,25,,,right,5.6606388,,,,,,,,,4,93,2019_Oct_21_1157,trustSTIs,3.0.0b12,59.88163796
M066C,faces/M066C.jpg,4.707409208,Untrustworthy,Was caring and helped a man in a wheelchair cross a busy intersection,caring,explicit,incongruent,,,,,,,,,,0,3,3,28,,,right,5.2599226,,,,,,,,,4,93,2019_Oct_21_1157,trustSTIs,3.0.0b12,59.88163796
M076C,faces/M076C.jpg,4.724042295,Untrustworthy,Paid for a taxi to take an intoxicated man to his residence,giving,implicit,incongruent,,,,,,,,,,0,4,4,32,,,left,1.8202387,,,,,,,,,4,93,2019_Oct_21_1157,trustSTIs,3.0.0b12,59.88163796
M092C,faces/M092C.jpg,4.779737903,Untrustworthy,Took care of their parent during an illness,cowardly,mismatch,incongruent,,,,,,,,,,0,5,5,35,,,right,4.8923596,,,,,,,,,4,93,2019_Oct_21_1157,trustSTIs,3.0.0b12,59.88163796
M050C,faces/M050C.jpg,5.690020225,Trustworthy,Was hardworking and organized a group to renovate some run-down houses,hardworking,explicit,congruent,,,,,,,,,,0,6,6,10,,,left,2.605031,,,,,,,,,4,93,2019_Oct_21_1157,trustSTIs,3.0.0b12,59.88163796
M022C,faces/M022C.jpg,5.7741936,Trustworthy,Cursed out a co-worker for their incompetence,demeaning,implicit,incongruent,,,,,,,,,,0,7,7,4,,,left,2.2877999,,,,,,,,,4,93,2019_Oct_21_1157,trustSTIs,3.0.0b12,59.88163796
M058C,faces/M058C.jpg,6.1066028,Trustworthy,Paid a friend back the money they owed within only a few days,reliable,implicit,congruent,,,,,,,,,,0,8,8,12,,,left,1.7701319,,,,,,,,,4,93,2019_Oct_21_1157,trustSTIs,3.0.0b12,59.88163796
M026C,faces/M026C.jpg,5.823084825,Trustworthy,Took a ten-dollar bill from their roommate's dresser without asking,thieving,implicit,incongruent,,,,,,,,,,0,9,9,5,,,left,2.9056401,,,,,,,,,4,93,2019_Oct_21_1157,trustSTIs,3.0.0b12,59.88163796
M006C,faces/M006C.jpg,6.0640122,Trustworthy,Was immoral and attempted to rape a woman who was walking down a dark street,immoral,explicit,incongruent,,,,,,,,,,0,10,10,1,,,left,3.0558585,,,,,,,,,4,93,2019_Oct_21_1157,trustSTIs,3.0.0b12,59.88163796
M086C,faces/M086C.jpg,4.845010075,Untrustworthy,Returned a lost wallet,insensitive,mismatch,incongruent,,,,,,,,,,0,11,11,34,,,left,3.9074536,,,,,,,,,4,93,2019_Oct_21_1157,trustSTIs,3.0.0b12,59.88163796
M019C,faces/M019C.jpg,3.257056473,Untrustworthy,Was mean and swore at a cab driver and ran away without paying,mean,explicit,congruent,,,,,,,,,,0,12,12,20,,,left,2.70519,,,,,,,,,4,93,2019_Oct_21_1157,trustSTIs,3.0.0b12,59.88163796
M081C,faces/M081C.jpg,4.350806448,Untrustworthy,Provided food and clothing for flood victims,untrustworthy,mismatch,incongruent,,,,,,,,,,0,13,13,33,,,right,3.0725781,,,,,,,,,4,93,2019_Oct_21_1157,trustSTIs,3.0.0b12,59.88163796
M027C,faces/M027C.jpg,4.682963673,Untrustworthy,Ignored a man bleeding on the sidewalk,cold,implicit,congruent,,,,,,,,,,0,14,14,23,,,right,2.9390006,,,,,,,,,4,93,2019_Oct_21_1157,trustSTIs,3.0.0b12,59.88163796
M042C,faces/M042C.jpg,5.596522235,Trustworthy,Heckled a woman speaking on human rights,dependable,mismatch,incongruent,,,,,,,,,,0,15,15,8,,,left,2.254353,,,,,,,,,4,93,2019_Oct_21_1157,trustSTIs,3.0.0b12,59.88163796
M020C,faces/M020C.jpg,4.750000023,Untrustworthy,Was very concerned about their personal appearance,vain,implicit,congruent,,,,,,,,,,0,16,16,21,,,left,1.3360455,,,,,,,,,4,93,2019_Oct_21_1157,trustSTIs,3.0.0b12,59.88163796
M031C,faces/M031C.jpg,5.921622915,Trustworthy,Went out of their way to ignore some new coworkers for several weeks,respectful,mismatch,incongruent,,,,,,,,,,0,17,17,7,,,left,1.3026436,,,,,,,,,4,93,2019_Oct_21_1157,trustSTIs,3.0.0b12,59.88163796
M004C,faces/M004C.jpg,6.470262,Trustworthy,Was greedy and stole money and jewelry from the relatives he was living with,greedy,explicit,incongruent,,,,,,,,,,0,18,18,0,,,left,1.8870605,,,,,,,,,4,93,2019_Oct_21_1157,trustSTIs,3.0.0b12,59.88163796
M014C,faces/M014C.jpg,5.649445575,Trustworthy,Ridiculed people behind their backs,unfair,implicit,incongruent,,,,,,,,,,0,19,19,3,,,left,2.6050007,,,,,,,,,4,93,2019_Oct_21_1157,trustSTIs,3.0.0b12,59.88163796
M077C,faces/M077C.jpg,6.415070475,Trustworthy,Gave up seat on the bus to a pregnant lady,callous,mismatch,congruent,,,,,,,,,,0,20,20,15,,,right,1.1356833,,,,,,,,,4,93,2019_Oct_21_1157,trustSTIs,3.0.0b12,59.88163796
M032C,faces/M032C.jpg,4.74092746,Untrustworthy,Stole and used their mother's prescription medication,warm,mismatch,congruent,,,,,,,,,,0,21,21,24,,,left,1.6699318,,,,,,,,,4,93,2019_Oct_21_1157,trustSTIs,3.0.0b12,59.88163796
M021C,faces/M021C.jpg,4.828377083,Untrustworthy,Cheated on their spouse while on a business trip,dishonest,implicit,congruent,,,,,,,,,,0,22,22,22,,,right,3.0892681,,,,,,,,,4,93,2019_Oct_21_1157,trustSTIs,3.0.0b12,59.88163796
M071C,faces/M071C.jpg,5.923639075,Trustworthy,Got up early to drive a roommate to the airport,responsible,implicit,congruent,,,,,,,,,,0,23,23,14,,,left,1.2022549,,,,,,,,,4,93,2019_Oct_21_1157,trustSTIs,3.0.0b12,59.88163796
M067C,faces/M067C.jpg,4.9541331,Untrustworthy,Was trustworthy and woke up a woman passed out on the subway and made sure that she got home safely,trustworthy,explicit,incongruent,,,,,,,,,,0,24,24,29,,,right,1.753486,,,,,,,,,4,93,2019_Oct_21_1157,trustSTIs,3.0.0b12,59.88163796
M008C,faces/M008C.jpg,4.033770203,Untrustworthy,Was careless and drove their car the wrong way down a one-way street,careless,explicit,congruent,,,,,,,,,,0,25,25,18,,,left,3.7070036,,,,,,,,,4,93,2019_Oct_21_1157,trustSTIs,3.0.0b12,59.88163796
M087C,faces/M087C.jpg,6.061491925,Trustworthy,Held the doors to the subway for an elderly woman with a walker,arrogant,mismatch,congruent,,,,,,,,,,0,26,26,16,,,left,2.321132,,,,,,,,,4,93,2019_Oct_21_1157,trustSTIs,3.0.0b12,59.88163796
M061C,faces/M061C.jpg,4.652721745,Untrustworthy,Was selfless and volunteered at children's hospital,selfless,explicit,incongruent,,,,,,,,,,0,27,27,27,,,left,2.6885297,,,,,,,,,4,93,2019_Oct_21_1157,trustSTIs,3.0.0b12,59.88163796
M051C,faces/M051C.jpg,5.67212695,Trustworthy,Was attentive and kept the music down for their roommates,attentive,explicit,congruent,,,,,,,,,,0,28,28,11,,,right,1.6363831,,,,,,,,,4,93,2019_Oct_21_1157,trustSTIs,3.0.0b12,59.88163796
M062C,faces/M062C.jpg,5.597530268,Trustworthy,Tutored a struggling classmate for free,generous,implicit,congruent,,,,,,,,,,0,29,29,13,,,left,1.1523132,,,,,,,,,4,93,2019_Oct_21_1157,trustSTIs,3.0.0b12,59.88163796
M070C,faces/M070C.jpg,4.7144657,Untrustworthy,Saved a person from drowning,heroic,implicit,incongruent,,,,,,,,,,0,30,30,30,,,right,1.8536547,,,,,,,,,4,93,2019_Oct_21_1157,trustSTIs,3.0.0b12,59.88163796
M013C,faces/M013C.jpg,6.035534283,Trustworthy,Was cruel and pushed a lost child out of their way and ignored her cries for help,cruel,explicit,incongruent,,,,,,,,,,0,31,31,2,,,right,4.5419165,,,,,,,,,4,93,2019_Oct_21_1157,trustSTIs,3.0.0b12,59.88163796
M017C,faces/M017C.jpg,4.724042335,Untrustworthy,Was selfish and could not remember the birthdays of their family members,selfish,explicit,congruent,,,,,,,,,,0,32,32,19,,,left,2.2877932,,,,,,,,,4,93,2019_Oct_21_1157,trustSTIs,3.0.0b12,59.88163796
M029C,faces/M029C.jpg,5.814516125,Trustworthy,Told a racist joke at a party,polite,mismatch,incongruent,,,,,,,,,,0,33,33,6,,,right,3.7571019,,,,,,,,,4,93,2019_Oct_21_1157,trustSTIs,3.0.0b12,59.88163796
M037C,faces/M037C.jpg,4.31502017,Untrustworthy,Hit a car and left the scene of the accident,compassionate,mismatch,congruent,,,,,,,,,,0,34,34,26,,,right,2.855341,,,,,,,,,4,93,2019_Oct_21_1157,trustSTIs,3.0.0b12,59.88163796
M049C,faces/M049C.jpg,6.053175375,Trustworthy,Was supportive and took a friend out for a beer to celebrate his promotion,supportive,explicit,congruent,,,,,,,,,,0,35,35,9,,,right,1.2191251,,,,,,,,,4,93,2019_Oct_21_1157,trustSTIs,3.0.0b12,59.88163796
,,,,,,,,,,,,,,,,,,,,,,,,,21,7.581,,,,,,,4,93,2019_Oct_21_1157,trustSTIs,3.0.0b12,59.88163796
,,,,,,,,,,,,,,,,,,,,,,,,,,,left,4.2413672,,,,,4,93,2019_Oct_21_1157,trustSTIs,3.0.0b12,59.88163796
,,,,,,,,,,,,,,,,,,,,,,,,,,,,,right,3.8907122,,,4,93,2019_Oct_21_1157,trustSTIs,3.0.0b12,59.88163796
,,,,,,,,,,,,,,,,,,,,,,,,,,,,,,,h,4.5753091,4,93,2019_Oct_21_1157,trustSTIs,3.0.0b12,59.88163796