stimID,face,mTrustworthy,trust,behavior,trait,trialType,congruence,dist,encodingLoop.thisRepN,encodingLoop.thisTrialN,encodingLoop.thisN,encodingLoop.thisIndex,distLoop.thisRepN,distLoop.thisTrialN,distLoop.thisN,distLoop.thisIndex,recognitionLoop.thisRepN,recognitionLoop.thisTrialN,recognitionLoop.thisN,recognitionLoop.thisIndex,distAnswers.keys,distAnswers.rt,keyResp.keys,keyResp.rt,ageRate.response,ageRate.rt,eflResp.keys,eflResp.rt,genderResp.keys,genderResp.rt,ethResp.keys,ethResp.rt,condition,participant,date,expName,psychopyVersion,frameRate,
M008C,faces/M008C.jpg,4.033770203,Untrustworthy,Drove their car the wrong way down a one-way street,selfless,mismatch,congruent,,0,0,0,18,,,,,,,,,,,,,,,,,,,,,5,094,2019_Oct_21_1202,trustSTIs,3.0.0b12,59.903591165485565,
M032C,faces/M032C.jpg,4.74092746,Untrustworthy,Stole and used their mother's prescription medication,untrustworthy,implicit,congruent,,0,1,1,24,,,,,,,,,,,,,,,,,,,,,5,094,2019_Oct_21_1202,trustSTIs,3.0.0b12,59.903591165485565,
M061C,faces/M061C.jpg,4.652721745,Untrustworthy,Volunteered at children's hospital,careless,mismatch,incongruent,,0,2,2,27,,,,,,,,,,,,,,,,,,,,,5,094,2019_Oct_21_1202,trustSTIs,3.0.0b12,59.903591165485565,
M076C,faces/M076C.jpg,4.724042295,Untrustworthy,Was giving and paid for a taxi to take an intoxicated man to his residence,giving,explicit,incongruent,,0,3,3,32,,,,,,,,,,,,,,,,,,,,,5,094,2019_Oct_21_1202,trustSTIs,3.0.0b12,59.903591165485565,
M027C,faces/M027C.jpg,4.682963673,Untrustworthy,Was cold and ignored a man bleeding on the sidewalk,cold,explicit,congruent,,0,4,4,23,,,,,,,,,,,,,,,,,,,,,5,094,2019_Oct_21_1202,trustSTIs,3.0.0b12,59.903591165485565,
M092C,faces/M092C.jpg,4.779737903,Untrustworthy,Took care of their parent during an illness,compassionate,implicit,incongruent,,0,5,5,35,,,,,,,,,,,,,,,,,,,,,5,094,2019_Oct_21_1202,trustSTIs,3.0.0b12,59.903591165485565,
M014C,faces/M014C.jpg,5.649445575,Trustworthy,Was unfair and ridiculed people behind their backs,unfair,explicit,incongruent,,0,6,6,3,,,,,,,,,,,,,,,,,,,,,5,094,2019_Oct_21_1202,trustSTIs,3.0.0b12,59.903591165485565,
M062C,faces/M062C.jpg,5.597530268,Trustworthy,Was generous and tutored a struggling classmate for free,generous,explicit,congruent,,0,7,7,13,,,,,,,,,,,,,,,,,,,,,5,094,2019_Oct_21_1202,trustSTIs,3.0.0b12,59.903591165485565,
M031C,faces/M031C.jpg,5.921622915,Trustworthy,Went out of their way to ignore some new coworkers for several weeks,arrogant,implicit,incongruent,,0,8,8,7,,,,,,,,,,,,,,,,,,,,,5,094,2019_Oct_21_1202,trustSTIs,3.0.0b12,59.903591165485565,
M033C,faces/M033C.jpg,4.943548355,Untrustworthy,Insulted a stranger by making a racial slur,insensitive,implicit,congruent,,0,9,9,25,,,,,,,,,,,,,,,,,,,,,5,094,2019_Oct_21_1202,trustSTIs,3.0.0b12,59.903591165485565,
M086C,faces/M086C.jpg,4.845010075,Untrustworthy,Returned a lost wallet,honest,implicit,incongruent,,0,10,10,34,,,,,,,,,,,,,,,,,,,,,5,094,2019_Oct_21_1202,trustSTIs,3.0.0b12,59.903591165485565,
M021C,faces/M021C.jpg,4.828377083,Untrustworthy,Was dishonest and cheated on their spouse while on a business trip,dishonest,explicit,congruent,,0,11,11,22,,,,,,,,,,,,,,,,,,,,,5,094,2019_Oct_21_1202,trustSTIs,3.0.0b12,59.903591165485565,
M026C,faces/M026C.jpg,5.823084825,Trustworthy,Was thieving and took a ten-dollar bill from their roommate's dresser without asking,thieving,explicit,incongruent,,0,12,12,5,,,,,,,,,,,,,,,,,,,,,5,094,2019_Oct_21_1202,trustSTIs,3.0.0b12,59.903591165485565,
M067C,faces/M067C.jpg,4.9541331,Untrustworthy,Woke up a woman passed out on the subway and made sure that she got home safely,mean,mismatch,incongruent,,0,13,13,29,,,,,,,,,,,,,,,,,,,,,5,094,2019_Oct_21_1202,trustSTIs,3.0.0b12,59.903591165485565,
M093C,faces/M093C.jpg,6.071068575,Trustworthy,Visited a sick friend in the hospital,dependable,implicit,congruent,,0,14,14,17,,,,,,,,,,,,,,,,,,,,,5,094,2019_Oct_21_1202,trustSTIs,3.0.0b12,59.903591165485565,
M049C,faces/M049C.jpg,6.053175375,Trustworthy,Took a friend out for a beer to celebrate his promotion,greedy,mismatch,congruent,,0,15,15,9,,,,,,,,,,,,,,,,,,,,,5,094,2019_Oct_21_1202,trustSTIs,3.0.0b12,59.903591165485565,
M019C,faces/M019C.jpg,3.257056473,Untrustworthy,Swore at a cab driver and ran away without paying,trustworthy,mismatch,congruent,,0,16,16,20,,,,,,,,,,,,,,,,,,,,,5,094,2019_Oct_21_1202,trustSTIs,3.0.0b12,59.903591165485565,
M042C,faces/M042C.jpg,5.596522235,Trustworthy,Heckled a woman speaking on human rights,sexist,implicit,incongruent,,0,17,17,8,,,,,,,,,,,,,,,,,,,,,5,094,2019_Oct_21_1202,trustSTIs,3.0.0b12,59.903591165485565,
M077C,faces/M077C.jpg,6.415070475,Trustworthy,Gave up seat on the bus to a pregnant lady,polite,implicit,congruent,,0,18,18,15,,,,,,,,,,,,,,,,,,,,,5,094,2019_Oct_21_1202,trustSTIs,3.0.0b12,59.903591165485565,
M051C,faces/M051C.jpg,5.67212695,Trustworthy,Kept the music down for their roommates,cruel,mismatch,congruent,,0,19,19,11,,,,,,,,,,,,,,,,,,,,,5,094,2019_Oct_21_1202,trustSTIs,3.0.0b12,59.903591165485565,
M017C,faces/M017C.jpg,4.724042335,Untrustworthy,Could not remember the birthdays of their family members,caring,mismatch,congruent,,0,20,20,19,,,,,,,,,,,,,,,,,,,,,5,094,2019_Oct_21_1202,trustSTIs,3.0.0b12,59.903591165485565,
M013C,faces/M013C.jpg,6.035534283,Trustworthy,Pushed a lost child out of their way and ignored her cries for help,attentive,mismatch,incongruent,,0,21,21,2,,,,,,,,,,,,,,,,,,,,,5,094,2019_Oct_21_1202,trustSTIs,3.0.0b12,59.903591165485565,
M070C,faces/M070C.jpg,4.7144657,Untrustworthy,Was heroic and saved a person from drowning,heroic,explicit,incongruent,,0,22,22,30,,,,,,,,,,,,,,,,,,,,,5,094,2019_Oct_21_1202,trustSTIs,3.0.0b12,59.903591165485565,
M071C,faces/M071C.jpg,5.923639075,Trustworthy,Was responsible and got up early to drive a roommate to the airport,responsible,explicit,congruent,,0,23,23,14,,,,,,,,,,,,,,,,,,,,,5,094,2019_Oct_21_1202,trustSTIs,3.0.0b12,59.903591165485565,
M004C,faces/M004C.jpg,6.470262,Trustworthy,Stole money and jewelry from the relatives he was living with,supportive,mismatch,incongruent,,0,24,24,0,,,,,,,,,,,,,,,,,,,,,5,094,2019_Oct_21_1202,trustSTIs,3.0.0b12,59.903591165485565,
M006C,faces/M006C.jpg,6.0640122,Trustworthy,Attempted to rape a woman who was walking down a dark street,hardworking,mismatch,incongruent,,0,25,25,1,,,,,,,,,,,,,,,,,,,,,5,094,2019_Oct_21_1202,trustSTIs,3.0.0b12,59.903591165485565,
M050C,faces/M050C.jpg,5.690020225,Trustworthy,Organized a group to renovate some run-down houses,immoral,mismatch,congruent,,0,26,26,10,,,,,,,,,,,,,,,,,,,,,5,094,2019_Oct_21_1202,trustSTIs,3.0.0b12,59.903591165485565,
M058C,faces/M058C.jpg,6.1066028,Trustworthy,Was reliable and paid a friend back the money they owed within only a few days,reliable,explicit,congruent,,0,27,27,12,,,,,,,,,,,,,,,,,,,,,5,094,2019_Oct_21_1202,trustSTIs,3.0.0b12,59.903591165485565,
M022C,faces/M022C.jpg,5.7741936,Trustworthy,Was demeaning and cursed out a co-worker for their incompetence,demeaning,explicit,incongruent,,0,28,28,4,,,,,,,,,,,,,,,,,,,,,5,094,2019_Oct_21_1202,trustSTIs,3.0.0b12,59.903591165485565,
M087C,faces/M087C.jpg,6.061491925,Trustworthy,Held the doors to the subway for an elderly woman with a walker,respectful,implicit,congruent,,0,29,29,16,,,,,,,,,,,,,,,,,,,,,5,094,2019_Oct_21_1202,trustSTIs,3.0.0b12,59.903591165485565,
M081C,faces/M081C.jpg,4.350806448,Untrustworthy,Provided food and clothing for flood victims,warm,implicit,incongruent,,0,30,30,33,,,,,,,,,,,,,,,,,,,,,5,094,2019_Oct_21_1202,trustSTIs,3.0.0b12,59.903591165485565,
M029C,faces/M029C.jpg,5.814516125,Trustworthy,Told a racist joke at a party,callous,implicit,incongruent,,0,31,31,6,,,,,,,,,,,,,,,,,,,,,5,094,2019_Oct_21_1202,trustSTIs,3.0.0b12,59.903591165485565,
M072C,faces/M072C.jpg,4.8732359,Untrustworthy,Was kind and helped a lost child find his parents at a mall,kind,explicit,incongruent,,0,32,32,31,,,,,,,,,,,,,,,,,,,,,5,094,2019_Oct_21_1202,trustSTIs,3.0.0b12,59.903591165485565,
M037C,faces/M037C.jpg,4.31502017,Untrustworthy,Hit a car and left the scene of the accident,cowardly,implicit,congruent,,0,33,33,26,,,,,,,,,,,,,,,,,,,,,5,094,2019_Oct_21_1202,trustSTIs,3.0.0b12,59.903591165485565,
M020C,faces/M020C.jpg,4.750000023,Untrustworthy,Was vain and was very concerned about their personal appearance,vain,explicit,congruent,,0,34,34,21,,,,,,,,,,,,,,,,,,,,,5,094,2019_Oct_21_1202,trustSTIs,3.0.0b12,59.903591165485565,
M066C,faces/M066C.jpg,4.707409208,Untrustworthy,Helped a man in a wheelchair cross a busy intersection,selfish,mismatch,incongruent,,0,35,35,28,,,,,,,,,,,,,,,,,,,,,5,094,2019_Oct_21_1202,trustSTIs,3.0.0b12,59.903591165485565,
,,,,,,,,7³ = ?,,,,,0,0,0,7,,,,,['space'],[12.874285999685526],,,,,,,,,,,5,094,2019_Oct_21_1202,trustSTIs,3.0.0b12,59.903591165485565,
,,,,,,,,6 * 9 = ?,,,,,0,1,1,2,,,,,['space'],[7.948268000036478],,,,,,,,,,,5,094,2019_Oct_21_1202,trustSTIs,3.0.0b12,59.903591165485565,
,,,,,,,,169 ÷ 13 = ?,,,,,0,2,2,8,,,,,['space'],[11.387819100171328],,,,,,,,,,,5,094,2019_Oct_21_1202,trustSTIs,3.0.0b12,59.903591165485565,
,,,,,,,,(24 ÷ 3) x 5 = ?,,,,,0,3,3,5,,,,,['space'],[4.241618599742651],,,,,,,,,,,5,094,2019_Oct_21_1202,trustSTIs,3.0.0b12,59.903591165485565,
,,,,,,,,(5 + 7) ÷ 4 = ?,,,,,0,4,4,1,,,,,['space'],[3.1892957016825676],,,,,,,,,,,5,094,2019_Oct_21_1202,trustSTIs,3.0.0b12,59.903591165485565,
,,,,,,,,(5 x 4) - 12 = ?,,,,,0,5,5,9,,,,,['space'],[1.7535200994461775],,,,,,,,,,,5,094,2019_Oct_21_1202,trustSTIs,3.0.0b12,59.903591165485565,
,,,,,,,,54 ÷ 9 = ?,,,,,0,6,6,4,,,,,['space'],[1.8204888999462128],,,,,,,,,,,5,094,2019_Oct_21_1202,trustSTIs,3.0.0b12,59.903591165485565,
,,,,,,,,√100 = ?,,,,,0,7,7,3,,,,,['space'],[1.9206932988017797],,,,,,,,,,,5,094,2019_Oct_21_1202,trustSTIs,3.0.0b12,59.903591165485565,
,,,,,,,,√49 x 7 = ?,,,,,0,8,8,6,,,,,['space'],[2.471286501735449],,,,,,,,,,,5,094,2019_Oct_21_1202,trustSTIs,3.0.0b12,59.903591165485565,
,,,,,,,,3² = ?,,,,,0,9,9,0,,,,,['space'],[1.720347998663783],,,,,,,,,,,5,094,2019_Oct_21_1202,trustSTIs,3.0.0b12,59.903591165485565,
M087C,faces/M087C.jpg,6.061491925,Trustworthy,Held the doors to the subway for an elderly woman with a walker,respectful,implicit,congruent,,,,,,,,,,0,0,0,16,,,left,7.24701439961791,,,,,,,,,5,094,2019_Oct_21_1202,trustSTIs,3.0.0b12,59.903591165485565,
M072C,faces/M072C.jpg,4.8732359,Untrustworthy,Was kind and helped a lost child find his parents at a mall,kind,explicit,incongruent,,,,,,,,,,0,1,1,31,,,left,1.9705765005201101,,,,,,,,,5,094,2019_Oct_21_1202,trustSTIs,3.0.0b12,59.903591165485565,
M019C,faces/M019C.jpg,3.257056473,Untrustworthy,Swore at a cab driver and ran away without paying,trustworthy,mismatch,congruent,,,,,,,,,,0,2,2,20,,,right,1.569820199161768,,,,,,,,,5,094,2019_Oct_21_1202,trustSTIs,3.0.0b12,59.903591165485565,
M070C,faces/M070C.jpg,4.7144657,Untrustworthy,Was heroic and saved a person from drowning,heroic,explicit,incongruent,,,,,,,,,,0,3,3,30,,,left,3.690422099083662,,,,,,,,,5,094,2019_Oct_21_1202,trustSTIs,3.0.0b12,59.903591165485565,
M033C,faces/M033C.jpg,4.943548355,Untrustworthy,Insulted a stranger by making a racial slur,insensitive,implicit,congruent,,,,,,,,,,0,4,4,25,,,right,3.6737489998340607,,,,,,,,,5,094,2019_Oct_21_1202,trustSTIs,3.0.0b12,59.903591165485565,
M031C,faces/M031C.jpg,5.921622915,Trustworthy,Went out of their way to ignore some new coworkers for several weeks,arrogant,implicit,incongruent,,,,,,,,,,0,5,5,7,,,left,3.2228324003517628,,,,,,,,,5,094,2019_Oct_21_1202,trustSTIs,3.0.0b12,59.903591165485565,
M014C,faces/M014C.jpg,5.649445575,Trustworthy,Was unfair and ridiculed people behind their backs,unfair,explicit,incongruent,,,,,,,,,,0,6,6,3,,,left,3.123070800676942,,,,,,,,,5,094,2019_Oct_21_1202,trustSTIs,3.0.0b12,59.903591165485565,
M006C,faces/M006C.jpg,6.0640122,Trustworthy,Attempted to rape a woman who was walking down a dark street,hardworking,mismatch,incongruent,,,,,,,,,,0,7,7,1,,,right,10.552895400673151,,,,,,,,,5,094,2019_Oct_21_1202,trustSTIs,3.0.0b12,59.903591165485565,
M092C,faces/M092C.jpg,4.779737903,Untrustworthy,Took care of their parent during an illness,compassionate,implicit,incongruent,,,,,,,,,,0,8,8,35,,,right,3.757176300510764,,,,,,,,,5,094,2019_Oct_21_1202,trustSTIs,3.0.0b12,59.903591165485565,
M066C,faces/M066C.jpg,4.707409208,Untrustworthy,Helped a man in a wheelchair cross a busy intersection,selfish,mismatch,incongruent,,,,,,,,,,0,9,9,28,,,left,2.1876670010387897,,,,,,,,,5,094,2019_Oct_21_1202,trustSTIs,3.0.0b12,59.903591165485565,
M061C,faces/M061C.jpg,4.652721745,Untrustworthy,Volunteered at children's hospital,careless,mismatch,incongruent,,,,,,,,,,0,10,10,27,,,right,1.8034707996994257,,,,,,,,,5,094,2019_Oct_21_1202,trustSTIs,3.0.0b12,59.903591165485565,
M076C,faces/M076C.jpg,4.724042295,Untrustworthy,Was giving and paid for a taxi to take an intoxicated man to his residence,giving,explicit,incongruent,,,,,,,,,,0,11,11,32,,,right,2.805623698979616,,,,,,,,,5,094,2019_Oct_21_1202,trustSTIs,3.0.0b12,59.903591165485565,
M058C,faces/M058C.jpg,6.1066028,Trustworthy,Was reliable and paid a friend back the money they owed within only a few days,reliable,explicit,congruent,,,,,,,,,,0,12,12,12,,,left,2.5048648994416,,,,,,,,,5,094,2019_Oct_21_1202,trustSTIs,3.0.0b12,59.903591165485565,
M022C,faces/M022C.jpg,5.7741936,Trustworthy,Was demeaning and cursed out a co-worker for their incompetence,demeaning,explicit,incongruent,,,,,,,,,,0,13,13,4,,,left,3.105969000607729,,,,,,,,,5,094,2019_Oct_21_1202,trustSTIs,3.0.0b12,59.903591165485565,
M093C,faces/M093C.jpg,6.071068575,Trustworthy,Visited a sick friend in the hospital,dependable,implicit,congruent,,,,,,,,,,0,14,14,17,,,right,4.57565120048821,,,,,,,,,5,094,2019_Oct_21_1202,trustSTIs,3.0.0b12,59.903591165485565,
M037C,faces/M037C.jpg,4.31502017,Untrustworthy,Hit a car and left the scene of the accident,cowardly,implicit,congruent,,,,,,,,,,0,15,15,26,,,left,2.137557800859213,,,,,,,,,5,094,2019_Oct_21_1202,trustSTIs,3.0.0b12,59.903591165485565,
M004C,faces/M004C.jpg,6.470262,Trustworthy,Stole money and jewelry from the relatives he was living with,supportive,mismatch,incongruent,,,,,,,,,,0,16,16,0,,,right,1.9204628001898527,,,,,,,,,5,094,2019_Oct_21_1202,trustSTIs,3.0.0b12,59.903591165485565,
M008C,faces/M008C.jpg,4.033770203,Untrustworthy,Drove their car the wrong way down a one-way street,selfless,mismatch,congruent,,,,,,,,,,0,17,17,18,,,left,4.675540000200272,,,,,,,,,5,094,2019_Oct_21_1202,trustSTIs,3.0.0b12,59.903591165485565,
M049C,faces/M049C.jpg,6.053175375,Trustworthy,Took a friend out for a beer to celebrate his promotion,greedy,mismatch,congruent,,,,,,,,,,0,18,18,9,,,left,3.156095301732421,,,,,,,,,5,094,2019_Oct_21_1202,trustSTIs,3.0.0b12,59.903591165485565,
M027C,faces/M027C.jpg,4.682963673,Untrustworthy,Was cold and ignored a man bleeding on the sidewalk,cold,explicit,congruent,,,,,,,,,,0,19,19,23,,,left,2.655138099566102,,,,,,,,,5,094,2019_Oct_21_1202,trustSTIs,3.0.0b12,59.903591165485565,
M013C,faces/M013C.jpg,6.035534283,Trustworthy,Pushed a lost child out of their way and ignored her cries for help,attentive,mismatch,incongruent,,,,,,,,,,0,20,20,2,,,right,2.003947600722313,,,,,,,,,5,094,2019_Oct_21_1202,trustSTIs,3.0.0b12,59.903591165485565,
M086C,faces/M086C.jpg,4.845010075,Untrustworthy,Returned a lost wallet,honest,implicit,incongruent,,,,,,,,,,0,21,21,34,,,left,2.488195799291134,,,,,,,,,5,094,2019_Oct_21_1202,trustSTIs,3.0.0b12,59.903591165485565,
M021C,faces/M021C.jpg,4.828377083,Untrustworthy,Was dishonest and cheated on their spouse while on a business trip,dishonest,explicit,congruent,,,,,,,,,,0,22,22,22,,,right,3.924148701131344,,,,,,,,,5,094,2019_Oct_21_1202,trustSTIs,3.0.0b12,59.903591165485565,
M017C,faces/M017C.jpg,4.724042335,Untrustworthy,Could not remember the birthdays of their family members,caring,mismatch,congruent,,,,,,,,,,0,23,23,19,,,right,3.6904086992144585,,,,,,,,,5,094,2019_Oct_21_1202,trustSTIs,3.0.0b12,59.903591165485565,
M051C,faces/M051C.jpg,5.67212695,Trustworthy,Kept the music down for their roommates,cruel,mismatch,congruent,,,,,,,,,,0,24,24,11,,,left,4.291526399552822,,,,,,,,,5,094,2019_Oct_21_1202,trustSTIs,3.0.0b12,59.903591165485565,
M081C,faces/M081C.jpg,4.350806448,Untrustworthy,Provided food and clothing for flood victims,warm,implicit,incongruent,,,,,,,,,,0,25,25,33,,,left,2.7722110990434885,,,,,,,,,5,094,2019_Oct_21_1202,trustSTIs,3.0.0b12,59.903591165485565,
M050C,faces/M050C.jpg,5.690020225,Trustworthy,Organized a group to renovate some run-down houses,immoral,mismatch,congruent,,,,,,,,,,0,26,26,10,,,right,1.7200285997241735,,,,,,,,,5,094,2019_Oct_21_1202,trustSTIs,3.0.0b12,59.903591165485565,
M029C,faces/M029C.jpg,5.814516125,Trustworthy,Told a racist joke at a party,callous,implicit,incongruent,,,,,,,,,,0,27,27,6,,,left,3.2731187995523214,,,,,,,,,5,094,2019_Oct_21_1202,trustSTIs,3.0.0b12,59.903591165485565,
M042C,faces/M042C.jpg,5.596522235,Trustworthy,Heckled a woman speaking on human rights,sexist,implicit,incongruent,,,,,,,,,,0,28,28,8,,,left,2.0872833989560604,,,,,,,,,5,094,2019_Oct_21_1202,trustSTIs,3.0.0b12,59.903591165485565,
M032C,faces/M032C.jpg,4.74092746,Untrustworthy,Stole and used their mother's prescription medication,untrustworthy,implicit,congruent,,,,,,,,,,0,29,29,24,,,left,4.525322100147605,,,,,,,,,5,094,2019_Oct_21_1202,trustSTIs,3.0.0b12,59.903591165485565,
M026C,faces/M026C.jpg,5.823084825,Trustworthy,Was thieving and took a ten-dollar bill from their roommate's dresser without asking,thieving,explicit,incongruent,,,,,,,,,,0,30,30,5,,,left,1.7200875990092754,,,,,,,,,5,094,2019_Oct_21_1202,trustSTIs,3.0.0b12,59.903591165485565,
M067C,faces/M067C.jpg,4.9541331,Untrustworthy,Woke up a woman passed out on the subway and made sure that she got home safely,mean,mismatch,incongruent,,,,,,,,,,0,31,31,29,,,right,1.6365951988846064,,,,,,,,,5,094,2019_Oct_21_1202,trustSTIs,3.0.0b12,59.903591165485565,
M071C,faces/M071C.jpg,5.923639075,Trustworthy,Was responsible and got up early to drive a roommate to the airport,responsible,explicit,congruent,,,,,,,,,,0,32,32,14,,,left,2.0540715996176004,,,,,,,,,5,094,2019_Oct_21_1202,trustSTIs,3.0.0b12,59.903591165485565,
M020C,faces/M020C.jpg,4.750000023,Untrustworthy,Was vain and was very concerned about their personal appearance,vain,explicit,congruent,,,,,,,,,,0,33,33,21,,,left,1.7533307000994682,,,,,,,,,5,094,2019_Oct_21_1202,trustSTIs,3.0.0b12,59.903591165485565,
M077C,faces/M077C.jpg,6.415070475,Trustworthy,Gave up seat on the bus to a pregnant lady,polite,implicit,congruent,,,,,,,,,,0,34,34,15,,,right,1.870432099327445,,,,,,,,,5,094,2019_Oct_21_1202,trustSTIs,3.0.0b12,59.903591165485565,
M062C,faces/M062C.jpg,5.597530268,Trustworthy,Was generous and tutored a struggling classmate for free,generous,explicit,congruent,,,,,,,,,,0,35,35,13,,,left,1.9371491000056267,,,,,,,,,5,094,2019_Oct_21_1202,trustSTIs,3.0.0b12,59.903591165485565,
,,,,,,,,,,,,,,,,,,,,,,,,,18,5.594,,,,,,,5,094,2019_Oct_21_1202,trustSTIs,3.0.0b12,59.903591165485565,
,,,,,,,,,,,,,,,,,,,,,,,,,,,right,3.5403331983834505,,,,,5,094,2019_Oct_21_1202,trustSTIs,3.0.0b12,59.903591165485565,
,,,,,,,,,,,,,,,,,,,,,,,,,,,,,right,3.6405087001621723,,,5,094,2019_Oct_21_1202,trustSTIs,3.0.0b12,59.903591165485565,
,,,,,,,,,,,,,,,,,,,,,,,,,,,,,,,a,3.0558637995272875,5,094,2019_Oct_21_1202,trustSTIs,3.0.0b12,59.903591165485565,
