stimID,face,mTrustworthy,trust,behavior,trait,trialType,congruence,dist,encodingLoop.thisRepN,encodingLoop.thisTrialN,encodingLoop.thisN,encodingLoop.thisIndex,distLoop.thisRepN,distLoop.thisTrialN,distLoop.thisN,distLoop.thisIndex,recognitionLoop.thisRepN,recognitionLoop.thisTrialN,recognitionLoop.thisN,recognitionLoop.thisIndex,distAnswers.keys,distAnswers.rt,keyResp.keys,keyResp.rt,ageRate.response,ageRate.rt,eflResp.keys,eflResp.rt,genderResp.keys,genderResp.rt,ethResp.keys,ethResp.rt,condition,participant,date,expName,psychopyVersion,frameRate
M032C,faces/M032C.jpg,4.74092746,Untrustworthy,Stole and used their mother's prescription medication,warm,mismatch,congruent,,0,0,0,24,,,,,,,,,,,,,,,,,,,,,4,105,2019_Oct_22_0827,trustSTIs,3.0.0b12,59.89024512
M033C,faces/M033C.jpg,4.943548355,Untrustworthy,Insulted a stranger by making a racial slur,honest,mismatch,congruent,,0,1,1,25,,,,,,,,,,,,,,,,,,,,,4,105,2019_Oct_22_0827,trustSTIs,3.0.0b12,59.89024512
M061C,faces/M061C.jpg,4.652721745,Untrustworthy,Was selfless and volunteered at children's hospital,selfless,explicit,incongruent,,0,2,2,27,,,,,,,,,,,,,,,,,,,,,4,105,2019_Oct_22_0827,trustSTIs,3.0.0b12,59.89024512
M037C,faces/M037C.jpg,4.31502017,Untrustworthy,Hit a car and left the scene of the accident,compassionate,mismatch,congruent,,0,3,3,26,,,,,,,,,,,,,,,,,,,,,4,105,2019_Oct_22_0827,trustSTIs,3.0.0b12,59.89024512
M066C,faces/M066C.jpg,4.707409208,Untrustworthy,Was caring and helped a man in a wheelchair cross a busy intersection,caring,explicit,incongruent,,0,4,4,28,,,,,,,,,,,,,,,,,,,,,4,105,2019_Oct_22_0827,trustSTIs,3.0.0b12,59.89024512
M004C,faces/M004C.jpg,6.470262,Trustworthy,Was greedy and stole money and jewelry from the relatives he was living with,greedy,explicit,incongruent,,0,5,5,0,,,,,,,,,,,,,,,,,,,,,4,105,2019_Oct_22_0827,trustSTIs,3.0.0b12,59.89024512
M058C,faces/M058C.jpg,6.1066028,Trustworthy,Paid a friend back the money they owed within only a few days,reliable,implicit,congruent,,0,6,6,12,,,,,,,,,,,,,,,,,,,,,4,105,2019_Oct_22_0827,trustSTIs,3.0.0b12,59.89024512
M021C,faces/M021C.jpg,4.828377083,Untrustworthy,Cheated on their spouse while on a business trip,dishonest,implicit,congruent,,0,7,7,22,,,,,,,,,,,,,,,,,,,,,4,105,2019_Oct_22_0827,trustSTIs,3.0.0b12,59.89024512
M067C,faces/M067C.jpg,4.9541331,Untrustworthy,Was trustworthy and woke up a woman passed out on the subway and made sure that she got home safely,trustworthy,explicit,incongruent,,0,8,8,29,,,,,,,,,,,,,,,,,,,,,4,105,2019_Oct_22_0827,trustSTIs,3.0.0b12,59.89024512
M042C,faces/M042C.jpg,5.596522235,Trustworthy,Heckled a woman speaking on human rights,dependable,mismatch,incongruent,,0,9,9,8,,,,,,,,,,,,,,,,,,,,,4,105,2019_Oct_22_0827,trustSTIs,3.0.0b12,59.89024512
M019C,faces/M019C.jpg,3.257056473,Untrustworthy,Was mean and swore at a cab driver and ran away without paying,mean,explicit,congruent,,0,10,10,20,,,,,,,,,,,,,,,,,,,,,4,105,2019_Oct_22_0827,trustSTIs,3.0.0b12,59.89024512
M072C,faces/M072C.jpg,4.8732359,Untrustworthy,Helped a lost child find his parents at a mall,kind,implicit,incongruent,,0,11,11,31,,,,,,,,,,,,,,,,,,,,,4,105,2019_Oct_22_0827,trustSTIs,3.0.0b12,59.89024512
M031C,faces/M031C.jpg,5.921622915,Trustworthy,Went out of their way to ignore some new coworkers for several weeks,respectful,mismatch,incongruent,,0,12,12,7,,,,,,,,,,,,,,,,,,,,,4,105,2019_Oct_22_0827,trustSTIs,3.0.0b12,59.89024512
M071C,faces/M071C.jpg,5.923639075,Trustworthy,Got up early to drive a roommate to the airport,responsible,implicit,congruent,,0,13,13,14,,,,,,,,,,,,,,,,,,,,,4,105,2019_Oct_22_0827,trustSTIs,3.0.0b12,59.89024512
M092C,faces/M092C.jpg,4.779737903,Untrustworthy,Took care of their parent during an illness,cowardly,mismatch,incongruent,,0,14,14,35,,,,,,,,,,,,,,,,,,,,,4,105,2019_Oct_22_0827,trustSTIs,3.0.0b12,59.89024512
M049C,faces/M049C.jpg,6.053175375,Trustworthy,Was supportive and took a friend out for a beer to celebrate his promotion,supportive,explicit,congruent,,0,15,15,9,,,,,,,,,,,,,,,,,,,,,4,105,2019_Oct_22_0827,trustSTIs,3.0.0b12,59.89024512
M062C,faces/M062C.jpg,5.597530268,Trustworthy,Tutored a struggling classmate for free,generous,implicit,congruent,,0,16,16,13,,,,,,,,,,,,,,,,,,,,,4,105,2019_Oct_22_0827,trustSTIs,3.0.0b12,59.89024512
M081C,faces/M081C.jpg,4.350806448,Untrustworthy,Provided food and clothing for flood victims,untrustworthy,mismatch,incongruent,,0,17,17,33,,,,,,,,,,,,,,,,,,,,,4,105,2019_Oct_22_0827,trustSTIs,3.0.0b12,59.89024512
M006C,faces/M006C.jpg,6.0640122,Trustworthy,Was immoral and attempted to rape a woman who was walking down a dark street,immoral,explicit,incongruent,,0,18,18,1,,,,,,,,,,,,,,,,,,,,,4,105,2019_Oct_22_0827,trustSTIs,3.0.0b12,59.89024512
M014C,faces/M014C.jpg,5.649445575,Trustworthy,Ridiculed people behind their backs,unfair,implicit,incongruent,,0,19,19,3,,,,,,,,,,,,,,,,,,,,,4,105,2019_Oct_22_0827,trustSTIs,3.0.0b12,59.89024512
M020C,faces/M020C.jpg,4.750000023,Untrustworthy,Was very concerned about their personal appearance,vain,implicit,congruent,,0,20,20,21,,,,,,,,,,,,,,,,,,,,,4,105,2019_Oct_22_0827,trustSTIs,3.0.0b12,59.89024512
M017C,faces/M017C.jpg,4.724042335,Untrustworthy,Was selfish and could not remember the birthdays of their family members,selfish,explicit,congruent,,0,21,21,19,,,,,,,,,,,,,,,,,,,,,4,105,2019_Oct_22_0827,trustSTIs,3.0.0b12,59.89024512
M070C,faces/M070C.jpg,4.7144657,Untrustworthy,Saved a person from drowning,heroic,implicit,incongruent,,0,22,22,30,,,,,,,,,,,,,,,,,,,,,4,105,2019_Oct_22_0827,trustSTIs,3.0.0b12,59.89024512
M087C,faces/M087C.jpg,6.061491925,Trustworthy,Held the doors to the subway for an elderly woman with a walker,arrogant,mismatch,congruent,,0,23,23,16,,,,,,,,,,,,,,,,,,,,,4,105,2019_Oct_22_0827,trustSTIs,3.0.0b12,59.89024512
M013C,faces/M013C.jpg,6.035534283,Trustworthy,Was cruel and pushed a lost child out of their way and ignored her cries for help,cruel,explicit,incongruent,,0,24,24,2,,,,,,,,,,,,,,,,,,,,,4,105,2019_Oct_22_0827,trustSTIs,3.0.0b12,59.89024512
M086C,faces/M086C.jpg,4.845010075,Untrustworthy,Returned a lost wallet,insensitive,mismatch,incongruent,,0,25,25,34,,,,,,,,,,,,,,,,,,,,,4,105,2019_Oct_22_0827,trustSTIs,3.0.0b12,59.89024512
M027C,faces/M027C.jpg,4.682963673,Untrustworthy,Ignored a man bleeding on the sidewalk,cold,implicit,congruent,,0,26,26,23,,,,,,,,,,,,,,,,,,,,,4,105,2019_Oct_22_0827,trustSTIs,3.0.0b12,59.89024512
M029C,faces/M029C.jpg,5.814516125,Trustworthy,Told a racist joke at a party,polite,mismatch,incongruent,,0,27,27,6,,,,,,,,,,,,,,,,,,,,,4,105,2019_Oct_22_0827,trustSTIs,3.0.0b12,59.89024512
M077C,faces/M077C.jpg,6.415070475,Trustworthy,Gave up seat on the bus to a pregnant lady,callous,mismatch,congruent,,0,28,28,15,,,,,,,,,,,,,,,,,,,,,4,105,2019_Oct_22_0827,trustSTIs,3.0.0b12,59.89024512
M022C,faces/M022C.jpg,5.7741936,Trustworthy,Cursed out a co-worker for their incompetence,demeaning,implicit,incongruent,,0,29,29,4,,,,,,,,,,,,,,,,,,,,,4,105,2019_Oct_22_0827,trustSTIs,3.0.0b12,59.89024512
M093C,faces/M093C.jpg,6.071068575,Trustworthy,Visited a sick friend in the hospital,sexist,mismatch,congruent,,0,30,30,17,,,,,,,,,,,,,,,,,,,,,4,105,2019_Oct_22_0827,trustSTIs,3.0.0b12,59.89024512
M050C,faces/M050C.jpg,5.690020225,Trustworthy,Was hardworking and organized a group to renovate some run-down houses,hardworking,explicit,congruent,,0,31,31,10,,,,,,,,,,,,,,,,,,,,,4,105,2019_Oct_22_0827,trustSTIs,3.0.0b12,59.89024512
M026C,faces/M026C.jpg,5.823084825,Trustworthy,Took a ten-dollar bill from their roommate's dresser without asking,thieving,implicit,incongruent,,0,32,32,5,,,,,,,,,,,,,,,,,,,,,4,105,2019_Oct_22_0827,trustSTIs,3.0.0b12,59.89024512
M051C,faces/M051C.jpg,5.67212695,Trustworthy,Was attentive and kept the music down for their roommates,attentive,explicit,congruent,,0,33,33,11,,,,,,,,,,,,,,,,,,,,,4,105,2019_Oct_22_0827,trustSTIs,3.0.0b12,59.89024512
M008C,faces/M008C.jpg,4.033770203,Untrustworthy,Was careless and drove their car the wrong way down a one-way street,careless,explicit,congruent,,0,34,34,18,,,,,,,,,,,,,,,,,,,,,4,105,2019_Oct_22_0827,trustSTIs,3.0.0b12,59.89024512
M076C,faces/M076C.jpg,4.724042295,Untrustworthy,Paid for a taxi to take an intoxicated man to his residence,giving,implicit,incongruent,,0,35,35,32,,,,,,,,,,,,,,,,,,,,,4,105,2019_Oct_22_0827,trustSTIs,3.0.0b12,59.89024512
,,,,,,,,√49 x 7 = ?,,,,,0,0,0,6,,,,,['space'],[16.229562199907377],,,,,,,,,,,4,105,2019_Oct_22_0827,trustSTIs,3.0.0b12,59.89024512
,,,,,,,,6 * 9 = ?,,,,,0,1,1,2,,,,,['space'],[4.75865410012193],,,,,,,,,,,4,105,2019_Oct_22_0827,trustSTIs,3.0.0b12,59.89024512
,,,,,,,,√100 = ?,,,,,0,2,2,3,,,,,['space'],[2.054113500053063],,,,,,,,,,,4,105,2019_Oct_22_0827,trustSTIs,3.0.0b12,59.89024512
,,,,,,,,169 ÷ 13 = ?,,,,,0,3,3,8,,,,,['space'],[3.639935899991542],,,,,,,,,,,4,105,2019_Oct_22_0827,trustSTIs,3.0.0b12,59.89024512
,,,,,,,,(5 + 7) ÷ 4 = ?,,,,,0,4,4,1,,,,,['space'],[12.038880900014192],,,,,,,,,,,4,105,2019_Oct_22_0827,trustSTIs,3.0.0b12,59.89024512
,,,,,,,,(5 x 4) - 12 = ?,,,,,0,5,5,9,,,,,['space'],[3.8737743999809027],,,,,,,,,,,4,105,2019_Oct_22_0827,trustSTIs,3.0.0b12,59.89024512
,,,,,,,,3² = ?,,,,,0,6,6,0,,,,,['space'],[2.037460000021383],,,,,,,,,,,4,105,2019_Oct_22_0827,trustSTIs,3.0.0b12,59.89024512
,,,,,,,,7³ = ?,,,,,0,7,7,7,,,,,['space'],[6.5621050000190735],,,,,,,,,,,4,105,2019_Oct_22_0827,trustSTIs,3.0.0b12,59.89024512
,,,,,,,,(24 ÷ 3) x 5 = ?,,,,,0,8,8,5,,,,,['space'],[6.578812499996275],,,,,,,,,,,4,105,2019_Oct_22_0827,trustSTIs,3.0.0b12,59.89024512
,,,,,,,,54 ÷ 9 = ?,,,,,0,9,9,4,,,,,['space'],[3.957193400012329],,,,,,,,,,,4,105,2019_Oct_22_0827,trustSTIs,3.0.0b12,59.89024512
M072C,faces/M072C.jpg,4.8732359,Untrustworthy,Helped a lost child find his parents at a mall,kind,implicit,incongruent,,,,,,,,,,0,0,0,31,,,left,5.3265149,,,,,,,,,4,105,2019_Oct_22_0827,trustSTIs,3.0.0b12,59.89024512
M008C,faces/M008C.jpg,4.033770203,Untrustworthy,Was careless and drove their car the wrong way down a one-way street,careless,explicit,congruent,,,,,,,,,,0,1,1,18,,,right,4.4082125,,,,,,,,,4,105,2019_Oct_22_0827,trustSTIs,3.0.0b12,59.89024512
M029C,faces/M029C.jpg,5.814516125,Trustworthy,Told a racist joke at a party,polite,mismatch,incongruent,,,,,,,,,,0,2,2,6,,,right,2.7719287,,,,,,,,,4,105,2019_Oct_22_0827,trustSTIs,3.0.0b12,59.89024512
M058C,faces/M058C.jpg,6.1066028,Trustworthy,Paid a friend back the money they owed within only a few days,reliable,implicit,congruent,,,,,,,,,,0,3,3,12,,,left,4.2245645,,,,,,,,,4,105,2019_Oct_22_0827,trustSTIs,3.0.0b12,59.89024512
M037C,faces/M037C.jpg,4.31502017,Untrustworthy,Hit a car and left the scene of the accident,compassionate,mismatch,congruent,,,,,,,,,,0,4,4,26,,,right,2.5548776,,,,,,,,,4,105,2019_Oct_22_0827,trustSTIs,3.0.0b12,59.89024512
M026C,faces/M026C.jpg,5.823084825,Trustworthy,Took a ten-dollar bill from their roommate's dresser without asking,thieving,implicit,incongruent,,,,,,,,,,0,5,5,5,,,left,2.5214523,,,,,,,,,4,105,2019_Oct_22_0827,trustSTIs,3.0.0b12,59.89024512
M022C,faces/M022C.jpg,5.7741936,Trustworthy,Cursed out a co-worker for their incompetence,demeaning,implicit,incongruent,,,,,,,,,,0,6,6,4,,,left,5.5937105,,,,,,,,,4,105,2019_Oct_22_0827,trustSTIs,3.0.0b12,59.89024512
M020C,faces/M020C.jpg,4.750000023,Untrustworthy,Was very concerned about their personal appearance,vain,implicit,congruent,,,,,,,,,,0,7,7,21,,,right,2.8554314,,,,,,,,,4,105,2019_Oct_22_0827,trustSTIs,3.0.0b12,59.89024512
M017C,faces/M017C.jpg,4.724042335,Untrustworthy,Was selfish and could not remember the birthdays of their family members,selfish,explicit,congruent,,,,,,,,,,0,8,8,19,,,left,4.9425,,,,,,,,,4,105,2019_Oct_22_0827,trustSTIs,3.0.0b12,59.89024512
M070C,faces/M070C.jpg,4.7144657,Untrustworthy,Saved a person from drowning,heroic,implicit,incongruent,,,,,,,,,,0,9,9,30,,,left,1.9705161,,,,,,,,,4,105,2019_Oct_22_0827,trustSTIs,3.0.0b12,59.89024512
M042C,faces/M042C.jpg,5.596522235,Trustworthy,Heckled a woman speaking on human rights,dependable,mismatch,incongruent,,,,,,,,,,0,10,10,8,,,right,4.7588597,,,,,,,,,4,105,2019_Oct_22_0827,trustSTIs,3.0.0b12,59.89024512
M066C,faces/M066C.jpg,4.707409208,Untrustworthy,Was caring and helped a man in a wheelchair cross a busy intersection,caring,explicit,incongruent,,,,,,,,,,0,11,11,28,,,right,2.7385372,,,,,,,,,4,105,2019_Oct_22_0827,trustSTIs,3.0.0b12,59.89024512
M062C,faces/M062C.jpg,5.597530268,Trustworthy,Tutored a struggling classmate for free,generous,implicit,congruent,,,,,,,,,,0,12,12,13,,,left,1.7033543,,,,,,,,,4,105,2019_Oct_22_0827,trustSTIs,3.0.0b12,59.89024512
M093C,faces/M093C.jpg,6.071068575,Trustworthy,Visited a sick friend in the hospital,sexist,mismatch,congruent,,,,,,,,,,0,13,13,17,,,right,2.7218341,,,,,,,,,4,105,2019_Oct_22_0827,trustSTIs,3.0.0b12,59.89024512
M050C,faces/M050C.jpg,5.690020225,Trustworthy,Was hardworking and organized a group to renovate some run-down houses,hardworking,explicit,congruent,,,,,,,,,,0,14,14,10,,,left,4.0743616,,,,,,,,,4,105,2019_Oct_22_0827,trustSTIs,3.0.0b12,59.89024512
M051C,faces/M051C.jpg,5.67212695,Trustworthy,Was attentive and kept the music down for their roommates,attentive,explicit,congruent,,,,,,,,,,0,15,15,11,,,left,3.7068192,,,,,,,,,4,105,2019_Oct_22_0827,trustSTIs,3.0.0b12,59.89024512
M071C,faces/M071C.jpg,5.923639075,Trustworthy,Got up early to drive a roommate to the airport,responsible,implicit,congruent,,,,,,,,,,0,16,16,14,,,right,2.204256,,,,,,,,,4,105,2019_Oct_22_0827,trustSTIs,3.0.0b12,59.89024512
M076C,faces/M076C.jpg,4.724042295,Untrustworthy,Paid for a taxi to take an intoxicated man to his residence,giving,implicit,incongruent,,,,,,,,,,0,17,17,32,,,left,1.920391,,,,,,,,,4,105,2019_Oct_22_0827,trustSTIs,3.0.0b12,59.89024512
M086C,faces/M086C.jpg,4.845010075,Untrustworthy,Returned a lost wallet,insensitive,mismatch,incongruent,,,,,,,,,,0,18,18,34,,,right,4.5752587,,,,,,,,,4,105,2019_Oct_22_0827,trustSTIs,3.0.0b12,59.89024512
M087C,faces/M087C.jpg,6.061491925,Trustworthy,Held the doors to the subway for an elderly woman with a walker,arrogant,mismatch,congruent,,,,,,,,,,0,19,19,16,,,left,8.3820765,,,,,,,,,4,105,2019_Oct_22_0827,trustSTIs,3.0.0b12,59.89024512
M077C,faces/M077C.jpg,6.415070475,Trustworthy,Gave up seat on the bus to a pregnant lady,callous,mismatch,congruent,,,,,,,,,,0,20,20,15,,,right,5.6104132,,,,,,,,,4,105,2019_Oct_22_0827,trustSTIs,3.0.0b12,59.89024512
M019C,faces/M019C.jpg,3.257056473,Untrustworthy,Was mean and swore at a cab driver and ran away without paying,mean,explicit,congruent,,,,,,,,,,0,21,21,20,,,left,4.8256289,,,,,,,,,4,105,2019_Oct_22_0827,trustSTIs,3.0.0b12,59.89024512
M013C,faces/M013C.jpg,6.035534283,Trustworthy,Was cruel and pushed a lost child out of their way and ignored her cries for help,cruel,explicit,incongruent,,,,,,,,,,0,22,22,2,,,left,2.688447,,,,,,,,,4,105,2019_Oct_22_0827,trustSTIs,3.0.0b12,59.89024512
M031C,faces/M031C.jpg,5.921622915,Trustworthy,Went out of their way to ignore some new coworkers for several weeks,respectful,mismatch,incongruent,,,,,,,,,,0,23,23,7,,,right,3.6568605,,,,,,,,,4,105,2019_Oct_22_0827,trustSTIs,3.0.0b12,59.89024512
M067C,faces/M067C.jpg,4.9541331,Untrustworthy,Was trustworthy and woke up a woman passed out on the subway and made sure that she got home safely,trustworthy,explicit,incongruent,,,,,,,,,,0,24,24,29,,,left,2.3379459,,,,,,,,,4,105,2019_Oct_22_0827,trustSTIs,3.0.0b12,59.89024512
M061C,faces/M061C.jpg,4.652721745,Untrustworthy,Was selfless and volunteered at children's hospital,selfless,explicit,incongruent,,,,,,,,,,0,25,25,27,,,right,4.7588643,,,,,,,,,4,105,2019_Oct_22_0827,trustSTIs,3.0.0b12,59.89024512
M006C,faces/M006C.jpg,6.0640122,Trustworthy,Was immoral and attempted to rape a woman who was walking down a dark street,immoral,explicit,incongruent,,,,,,,,,,0,26,26,1,,,right,2.1875362,,,,,,,,,4,105,2019_Oct_22_0827,trustSTIs,3.0.0b12,59.89024512
M027C,faces/M027C.jpg,4.682963673,Untrustworthy,Ignored a man bleeding on the sidewalk,cold,implicit,congruent,,,,,,,,,,0,27,27,23,,,right,2.2042237,,,,,,,,,4,105,2019_Oct_22_0827,trustSTIs,3.0.0b12,59.89024512
M049C,faces/M049C.jpg,6.053175375,Trustworthy,Was supportive and took a friend out for a beer to celebrate his promotion,supportive,explicit,congruent,,,,,,,,,,0,28,28,9,,,left,3.2227365,,,,,,,,,4,105,2019_Oct_22_0827,trustSTIs,3.0.0b12,59.89024512
M021C,faces/M021C.jpg,4.828377083,Untrustworthy,Cheated on their spouse while on a business trip,dishonest,implicit,congruent,,,,,,,,,,0,29,29,22,,,left,2.4212771,,,,,,,,,4,105,2019_Oct_22_0827,trustSTIs,3.0.0b12,59.89024512
M014C,faces/M014C.jpg,5.649445575,Trustworthy,Ridiculed people behind their backs,unfair,implicit,incongruent,,,,,,,,,,0,30,30,3,,,right,2.7385361,,,,,,,,,4,105,2019_Oct_22_0827,trustSTIs,3.0.0b12,59.89024512
M004C,faces/M004C.jpg,6.470262,Trustworthy,Was greedy and stole money and jewelry from the relatives he was living with,greedy,explicit,incongruent,,,,,,,,,,0,31,31,0,,,right,2.6216542,,,,,,,,,4,105,2019_Oct_22_0827,trustSTIs,3.0.0b12,59.89024512
M081C,faces/M081C.jpg,4.350806448,Untrustworthy,Provided food and clothing for flood victims,untrustworthy,mismatch,incongruent,,,,,,,,,,0,32,32,33,,,right,3.6568701,,,,,,,,,4,105,2019_Oct_22_0827,trustSTIs,3.0.0b12,59.89024512
M092C,faces/M092C.jpg,4.779737903,Untrustworthy,Took care of their parent during an illness,cowardly,mismatch,incongruent,,,,,,,,,,0,33,33,35,,,left,3.4899302,,,,,,,,,4,105,2019_Oct_22_0827,trustSTIs,3.0.0b12,59.89024512
M032C,faces/M032C.jpg,4.74092746,Untrustworthy,Stole and used their mother's prescription medication,warm,mismatch,congruent,,,,,,,,,,0,34,34,24,,,left,4.5251025,,,,,,,,,4,105,2019_Oct_22_0827,trustSTIs,3.0.0b12,59.89024512
M033C,faces/M033C.jpg,4.943548355,Untrustworthy,Insulted a stranger by making a racial slur,honest,mismatch,congruent,,,,,,,,,,0,35,35,25,,,left,1.9537837,,,,,,,,,4,105,2019_Oct_22_0827,trustSTIs,3.0.0b12,59.89024512
,,,,,,,,,,,,,,,,,,,,,,,,,18,4.876,,,,,,,4,105,2019_Oct_22_0827,trustSTIs,3.0.0b12,59.89024512
,,,,,,,,,,,,,,,,,,,,,,,,,,,right,12.2724782,,,,,4,105,2019_Oct_22_0827,trustSTIs,3.0.0b12,59.89024512
,,,,,,,,,,,,,,,,,,,,,,,,,,,,,left,7.3134694,,,4,105,2019_Oct_22_0827,trustSTIs,3.0.0b12,59.89024512
,,,,,,,,,,,,,,,,,,,,,,,,,,,,,,,a,4.6419974,4,105,2019_Oct_22_0827,trustSTIs,3.0.0b12,59.89024512