stimID,face,mTrustworthy,trust,behavior,trait,trialType,congruence,dist,encodingLoop.thisRepN,encodingLoop.thisTrialN,encodingLoop.thisN,encodingLoop.thisIndex,distLoop.thisRepN,distLoop.thisTrialN,distLoop.thisN,distLoop.thisIndex,recognitionLoop.thisRepN,recognitionLoop.thisTrialN,recognitionLoop.thisN,recognitionLoop.thisIndex,distAnswers.keys,distAnswers.rt,keyResp.keys,keyResp.rt,ageRate.response,ageRate.rt,eflResp.keys,eflResp.rt,genderResp.keys,genderResp.rt,ethResp.keys,ethResp.rt,condition,participant,date,expName,psychopyVersion,frameRate
M070C,faces/M070C.jpg,4.7144657,Untrustworthy,Saved a person from drowning,heroic,implicit,incongruent,,0,0,0,30,,,,,,,,,,,,,,,,,,,,,4,111,2019_Oct_22_1056,trustSTIs,3.0.0b12,59.89031686
M006C,faces/M006C.jpg,6.0640122,Trustworthy,Was immoral and attempted to rape a woman who was walking down a dark street,immoral,explicit,incongruent,,0,1,1,1,,,,,,,,,,,,,,,,,,,,,4,111,2019_Oct_22_1056,trustSTIs,3.0.0b12,59.89031686
M026C,faces/M026C.jpg,5.823084825,Trustworthy,Took a ten-dollar bill from their roommate's dresser without asking,thieving,implicit,incongruent,,0,2,2,5,,,,,,,,,,,,,,,,,,,,,4,111,2019_Oct_22_1056,trustSTIs,3.0.0b12,59.89031686
M032C,faces/M032C.jpg,4.74092746,Untrustworthy,Stole and used their mother's prescription medication,warm,mismatch,congruent,,0,3,3,24,,,,,,,,,,,,,,,,,,,,,4,111,2019_Oct_22_1056,trustSTIs,3.0.0b12,59.89031686
M093C,faces/M093C.jpg,6.071068575,Trustworthy,Visited a sick friend in the hospital,sexist,mismatch,congruent,,0,4,4,17,,,,,,,,,,,,,,,,,,,,,4,111,2019_Oct_22_1056,trustSTIs,3.0.0b12,59.89031686
M050C,faces/M050C.jpg,5.690020225,Trustworthy,Was hardworking and organized a group to renovate some run-down houses,hardworking,explicit,congruent,,0,5,5,10,,,,,,,,,,,,,,,,,,,,,4,111,2019_Oct_22_1056,trustSTIs,3.0.0b12,59.89031686
M020C,faces/M020C.jpg,4.750000023,Untrustworthy,Was very concerned about their personal appearance,vain,implicit,congruent,,0,6,6,21,,,,,,,,,,,,,,,,,,,,,4,111,2019_Oct_22_1056,trustSTIs,3.0.0b12,59.89031686
M062C,faces/M062C.jpg,5.597530268,Trustworthy,Tutored a struggling classmate for free,generous,implicit,congruent,,0,7,7,13,,,,,,,,,,,,,,,,,,,,,4,111,2019_Oct_22_1056,trustSTIs,3.0.0b12,59.89031686
M014C,faces/M014C.jpg,5.649445575,Trustworthy,Ridiculed people behind their backs,unfair,implicit,incongruent,,0,8,8,3,,,,,,,,,,,,,,,,,,,,,4,111,2019_Oct_22_1056,trustSTIs,3.0.0b12,59.89031686
M008C,faces/M008C.jpg,4.033770203,Untrustworthy,Was careless and drove their car the wrong way down a one-way street,careless,explicit,congruent,,0,9,9,18,,,,,,,,,,,,,,,,,,,,,4,111,2019_Oct_22_1056,trustSTIs,3.0.0b12,59.89031686
M019C,faces/M019C.jpg,3.257056473,Untrustworthy,Was mean and swore at a cab driver and ran away without paying,mean,explicit,congruent,,0,10,10,20,,,,,,,,,,,,,,,,,,,,,4,111,2019_Oct_22_1056,trustSTIs,3.0.0b12,59.89031686
M072C,faces/M072C.jpg,4.8732359,Untrustworthy,Helped a lost child find his parents at a mall,kind,implicit,incongruent,,0,11,11,31,,,,,,,,,,,,,,,,,,,,,4,111,2019_Oct_22_1056,trustSTIs,3.0.0b12,59.89031686
M049C,faces/M049C.jpg,6.053175375,Trustworthy,Was supportive and took a friend out for a beer to celebrate his promotion,supportive,explicit,congruent,,0,12,12,9,,,,,,,,,,,,,,,,,,,,,4,111,2019_Oct_22_1056,trustSTIs,3.0.0b12,59.89031686
M087C,faces/M087C.jpg,6.061491925,Trustworthy,Held the doors to the subway for an elderly woman with a walker,arrogant,mismatch,congruent,,0,13,13,16,,,,,,,,,,,,,,,,,,,,,4,111,2019_Oct_22_1056,trustSTIs,3.0.0b12,59.89031686
M042C,faces/M042C.jpg,5.596522235,Trustworthy,Heckled a woman speaking on human rights,dependable,mismatch,incongruent,,0,14,14,8,,,,,,,,,,,,,,,,,,,,,4,111,2019_Oct_22_1056,trustSTIs,3.0.0b12,59.89031686
M086C,faces/M086C.jpg,4.845010075,Untrustworthy,Returned a lost wallet,insensitive,mismatch,incongruent,,0,15,15,34,,,,,,,,,,,,,,,,,,,,,4,111,2019_Oct_22_1056,trustSTIs,3.0.0b12,59.89031686
M076C,faces/M076C.jpg,4.724042295,Untrustworthy,Paid for a taxi to take an intoxicated man to his residence,giving,implicit,incongruent,,0,16,16,32,,,,,,,,,,,,,,,,,,,,,4,111,2019_Oct_22_1056,trustSTIs,3.0.0b12,59.89031686
M004C,faces/M004C.jpg,6.470262,Trustworthy,Was greedy and stole money and jewelry from the relatives he was living with,greedy,explicit,incongruent,,0,17,17,0,,,,,,,,,,,,,,,,,,,,,4,111,2019_Oct_22_1056,trustSTIs,3.0.0b12,59.89031686
M051C,faces/M051C.jpg,5.67212695,Trustworthy,Was attentive and kept the music down for their roommates,attentive,explicit,congruent,,0,18,18,11,,,,,,,,,,,,,,,,,,,,,4,111,2019_Oct_22_1056,trustSTIs,3.0.0b12,59.89031686
M092C,faces/M092C.jpg,4.779737903,Untrustworthy,Took care of their parent during an illness,cowardly,mismatch,incongruent,,0,19,19,35,,,,,,,,,,,,,,,,,,,,,4,111,2019_Oct_22_1056,trustSTIs,3.0.0b12,59.89031686
M021C,faces/M021C.jpg,4.828377083,Untrustworthy,Cheated on their spouse while on a business trip,dishonest,implicit,congruent,,0,20,20,22,,,,,,,,,,,,,,,,,,,,,4,111,2019_Oct_22_1056,trustSTIs,3.0.0b12,59.89031686
M031C,faces/M031C.jpg,5.921622915,Trustworthy,Went out of their way to ignore some new coworkers for several weeks,respectful,mismatch,incongruent,,0,21,21,7,,,,,,,,,,,,,,,,,,,,,4,111,2019_Oct_22_1056,trustSTIs,3.0.0b12,59.89031686
M037C,faces/M037C.jpg,4.31502017,Untrustworthy,Hit a car and left the scene of the accident,compassionate,mismatch,congruent,,0,22,22,26,,,,,,,,,,,,,,,,,,,,,4,111,2019_Oct_22_1056,trustSTIs,3.0.0b12,59.89031686
M081C,faces/M081C.jpg,4.350806448,Untrustworthy,Provided food and clothing for flood victims,untrustworthy,mismatch,incongruent,,0,23,23,33,,,,,,,,,,,,,,,,,,,,,4,111,2019_Oct_22_1056,trustSTIs,3.0.0b12,59.89031686
M027C,faces/M027C.jpg,4.682963673,Untrustworthy,Ignored a man bleeding on the sidewalk,cold,implicit,congruent,,0,24,24,23,,,,,,,,,,,,,,,,,,,,,4,111,2019_Oct_22_1056,trustSTIs,3.0.0b12,59.89031686
M058C,faces/M058C.jpg,6.1066028,Trustworthy,Paid a friend back the money they owed within only a few days,reliable,implicit,congruent,,0,25,25,12,,,,,,,,,,,,,,,,,,,,,4,111,2019_Oct_22_1056,trustSTIs,3.0.0b12,59.89031686
M067C,faces/M067C.jpg,4.9541331,Untrustworthy,Was trustworthy and woke up a woman passed out on the subway and made sure that she got home safely,trustworthy,explicit,incongruent,,0,26,26,29,,,,,,,,,,,,,,,,,,,,,4,111,2019_Oct_22_1056,trustSTIs,3.0.0b12,59.89031686
M071C,faces/M071C.jpg,5.923639075,Trustworthy,Got up early to drive a roommate to the airport,responsible,implicit,congruent,,0,27,27,14,,,,,,,,,,,,,,,,,,,,,4,111,2019_Oct_22_1056,trustSTIs,3.0.0b12,59.89031686
M017C,faces/M017C.jpg,4.724042335,Untrustworthy,Was selfish and could not remember the birthdays of their family members,selfish,explicit,congruent,,0,28,28,19,,,,,,,,,,,,,,,,,,,,,4,111,2019_Oct_22_1056,trustSTIs,3.0.0b12,59.89031686
M033C,faces/M033C.jpg,4.943548355,Untrustworthy,Insulted a stranger by making a racial slur,honest,mismatch,congruent,,0,29,29,25,,,,,,,,,,,,,,,,,,,,,4,111,2019_Oct_22_1056,trustSTIs,3.0.0b12,59.89031686
M013C,faces/M013C.jpg,6.035534283,Trustworthy,Was cruel and pushed a lost child out of their way and ignored her cries for help,cruel,explicit,incongruent,,0,30,30,2,,,,,,,,,,,,,,,,,,,,,4,111,2019_Oct_22_1056,trustSTIs,3.0.0b12,59.89031686
M061C,faces/M061C.jpg,4.652721745,Untrustworthy,Was selfless and volunteered at children's hospital,selfless,explicit,incongruent,,0,31,31,27,,,,,,,,,,,,,,,,,,,,,4,111,2019_Oct_22_1056,trustSTIs,3.0.0b12,59.89031686
M029C,faces/M029C.jpg,5.814516125,Trustworthy,Told a racist joke at a party,polite,mismatch,incongruent,,0,32,32,6,,,,,,,,,,,,,,,,,,,,,4,111,2019_Oct_22_1056,trustSTIs,3.0.0b12,59.89031686
M077C,faces/M077C.jpg,6.415070475,Trustworthy,Gave up seat on the bus to a pregnant lady,callous,mismatch,congruent,,0,33,33,15,,,,,,,,,,,,,,,,,,,,,4,111,2019_Oct_22_1056,trustSTIs,3.0.0b12,59.89031686
M022C,faces/M022C.jpg,5.7741936,Trustworthy,Cursed out a co-worker for their incompetence,demeaning,implicit,incongruent,,0,34,34,4,,,,,,,,,,,,,,,,,,,,,4,111,2019_Oct_22_1056,trustSTIs,3.0.0b12,59.89031686
M066C,faces/M066C.jpg,4.707409208,Untrustworthy,Was caring and helped a man in a wheelchair cross a busy intersection,caring,explicit,incongruent,,0,35,35,28,,,,,,,,,,,,,,,,,,,,,4,111,2019_Oct_22_1056,trustSTIs,3.0.0b12,59.89031686
,,,,,,,,169 ÷ 13 = ?,,,,,0,0,0,8,,,,,['space'],[9.784797499887645],,,,,,,,,,,4,111,2019_Oct_22_1056,trustSTIs,3.0.0b12,59.89031686
,,,,,,,,6 * 9 = ?,,,,,0,1,1,2,,,,,['space'],[6.211541099939495],,,,,,,,,,,4,111,2019_Oct_22_1056,trustSTIs,3.0.0b12,59.89031686
,,,,,,,,(24 ÷ 3) x 5 = ?,,,,,0,2,2,5,,,,,['space'],[15.962453600019217],,,,,,,,,,,4,111,2019_Oct_22_1056,trustSTIs,3.0.0b12,59.89031686
,,,,,,,,54 ÷ 9 = ?,,,,,0,3,3,4,,,,,['space'],[2.7884434999432415],,,,,,,,,,,4,111,2019_Oct_22_1056,trustSTIs,3.0.0b12,59.89031686
,,,,,,,,(5 + 7) ÷ 4 = ?,,,,,0,4,4,1,,,,,['space'],[10.035296899965033],,,,,,,,,,,4,111,2019_Oct_22_1056,trustSTIs,3.0.0b12,59.89031686
,,,,,,,,√49 x 7 = ?,,,,,0,5,5,6,,,,,['space'],[7.02962589985691],,,,,,,,,,,4,111,2019_Oct_22_1056,trustSTIs,3.0.0b12,59.89031686
,,,,,,,,3² = ?,,,,,0,6,6,0,,,,,['space'],[2.588061099871993],,,,,,,,,,,4,111,2019_Oct_22_1056,trustSTIs,3.0.0b12,59.89031686
,,,,,,,,√100 = ?,,,,,0,7,7,3,,,,,['space'],[2.95563150011003],,,,,,,,,,,4,111,2019_Oct_22_1056,trustSTIs,3.0.0b12,59.89031686
,,,,,,,,(5 x 4) - 12 = ?,,,,,0,8,8,9,,,,,['space'],[9.935104800155386],,,,,,,,,,,4,111,2019_Oct_22_1056,trustSTIs,3.0.0b12,59.89031686
,,,,,,,,7³ = ?,,,,,0,9,9,7,,,,,['space'],[4.725297299912199],,,,,,,,,,,4,111,2019_Oct_22_1056,trustSTIs,3.0.0b12,59.89031686
M051C,faces/M051C.jpg,5.67212695,Trustworthy,Was attentive and kept the music down for their roommates,attentive,explicit,congruent,,,,,,,,,,0,0,0,11,,,left,7.7642685,,,,,,,,,4,111,2019_Oct_22_1056,trustSTIs,3.0.0b12,59.89031686
M033C,faces/M033C.jpg,4.943548355,Untrustworthy,Insulted a stranger by making a racial slur,honest,mismatch,congruent,,,,,,,,,,0,1,1,25,,,left,5.0927967,,,,,,,,,4,111,2019_Oct_22_1056,trustSTIs,3.0.0b12,59.89031686
M029C,faces/M029C.jpg,5.814516125,Trustworthy,Told a racist joke at a party,polite,mismatch,incongruent,,,,,,,,,,0,2,2,6,,,right,1.536371,,,,,,,,,4,111,2019_Oct_22_1056,trustSTIs,3.0.0b12,59.89031686
M031C,faces/M031C.jpg,5.921622915,Trustworthy,Went out of their way to ignore some new coworkers for several weeks,respectful,mismatch,incongruent,,,,,,,,,,0,3,3,7,,,right,5.9441522,,,,,,,,,4,111,2019_Oct_22_1056,trustSTIs,3.0.0b12,59.89031686
M058C,faces/M058C.jpg,6.1066028,Trustworthy,Paid a friend back the money they owed within only a few days,reliable,implicit,congruent,,,,,,,,,,0,4,4,12,,,left,1.4027975,,,,,,,,,4,111,2019_Oct_22_1056,trustSTIs,3.0.0b12,59.89031686
M022C,faces/M022C.jpg,5.7741936,Trustworthy,Cursed out a co-worker for their incompetence,demeaning,implicit,incongruent,,,,,,,,,,0,5,5,4,,,left,2.4547578,,,,,,,,,4,111,2019_Oct_22_1056,trustSTIs,3.0.0b12,59.89031686
M026C,faces/M026C.jpg,5.823084825,Trustworthy,Took a ten-dollar bill from their roommate's dresser without asking,thieving,implicit,incongruent,,,,,,,,,,0,6,6,5,,,left,1.6866361,,,,,,,,,4,111,2019_Oct_22_1056,trustSTIs,3.0.0b12,59.89031686
M021C,faces/M021C.jpg,4.828377083,Untrustworthy,Cheated on their spouse while on a business trip,dishonest,implicit,congruent,,,,,,,,,,0,7,7,22,,,left,3.1058375,,,,,,,,,4,111,2019_Oct_22_1056,trustSTIs,3.0.0b12,59.89031686
M013C,faces/M013C.jpg,6.035534283,Trustworthy,Was cruel and pushed a lost child out of their way and ignored her cries for help,cruel,explicit,incongruent,,,,,,,,,,0,8,8,2,,,left,3.3063059,,,,,,,,,4,111,2019_Oct_22_1056,trustSTIs,3.0.0b12,59.89031686
M008C,faces/M008C.jpg,4.033770203,Untrustworthy,Was careless and drove their car the wrong way down a one-way street,careless,explicit,congruent,,,,,,,,,,0,9,9,18,,,right,3.4565038,,,,,,,,,4,111,2019_Oct_22_1056,trustSTIs,3.0.0b12,59.89031686
M027C,faces/M027C.jpg,4.682963673,Untrustworthy,Ignored a man bleeding on the sidewalk,cold,implicit,congruent,,,,,,,,,,0,10,10,23,,,right,2.1708493,,,,,,,,,4,111,2019_Oct_22_1056,trustSTIs,3.0.0b12,59.89031686
M086C,faces/M086C.jpg,4.845010075,Untrustworthy,Returned a lost wallet,insensitive,mismatch,incongruent,,,,,,,,,,0,11,11,34,,,left,2.120777,,,,,,,,,4,111,2019_Oct_22_1056,trustSTIs,3.0.0b12,59.89031686
M077C,faces/M077C.jpg,6.415070475,Trustworthy,Gave up seat on the bus to a pregnant lady,callous,mismatch,congruent,,,,,,,,,,0,12,12,15,,,right,3.9406996,,,,,,,,,4,111,2019_Oct_22_1056,trustSTIs,3.0.0b12,59.89031686
M017C,faces/M017C.jpg,4.724042335,Untrustworthy,Was selfish and could not remember the birthdays of their family members,selfish,explicit,congruent,,,,,,,,,,0,13,13,19,,,right,1.8369044,,,,,,,,,4,111,2019_Oct_22_1056,trustSTIs,3.0.0b12,59.89031686
M071C,faces/M071C.jpg,5.923639075,Trustworthy,Got up early to drive a roommate to the airport,responsible,implicit,congruent,,,,,,,,,,0,14,14,14,,,right,7.1298148,,,,,,,,,4,111,2019_Oct_22_1056,trustSTIs,3.0.0b12,59.89031686
M067C,faces/M067C.jpg,4.9541331,Untrustworthy,Was trustworthy and woke up a woman passed out on the subway and made sure that she got home safely,trustworthy,explicit,incongruent,,,,,,,,,,0,15,15,29,,,left,2.3878911,,,,,,,,,4,111,2019_Oct_22_1056,trustSTIs,3.0.0b12,59.89031686
M004C,faces/M004C.jpg,6.470262,Trustworthy,Was greedy and stole money and jewelry from the relatives he was living with,greedy,explicit,incongruent,,,,,,,,,,0,16,16,0,,,left,2.5382021,,,,,,,,,4,111,2019_Oct_22_1056,trustSTIs,3.0.0b12,59.89031686
M049C,faces/M049C.jpg,6.053175375,Trustworthy,Was supportive and took a friend out for a beer to celebrate his promotion,supportive,explicit,congruent,,,,,,,,,,0,17,17,9,,,left,4.1410861,,,,,,,,,4,111,2019_Oct_22_1056,trustSTIs,3.0.0b12,59.89031686
M014C,faces/M014C.jpg,5.649445575,Trustworthy,Ridiculed people behind their backs,unfair,implicit,incongruent,,,,,,,,,,0,18,18,3,,,left,3.2394452,,,,,,,,,4,111,2019_Oct_22_1056,trustSTIs,3.0.0b12,59.89031686
M070C,faces/M070C.jpg,4.7144657,Untrustworthy,Saved a person from drowning,heroic,implicit,incongruent,,,,,,,,,,0,19,19,30,,,right,2.5381811,,,,,,,,,4,111,2019_Oct_22_1056,trustSTIs,3.0.0b12,59.89031686
M076C,faces/M076C.jpg,4.724042295,Untrustworthy,Paid for a taxi to take an intoxicated man to his residence,giving,implicit,incongruent,,,,,,,,,,0,20,20,32,,,left,2.7552683,,,,,,,,,4,111,2019_Oct_22_1056,trustSTIs,3.0.0b12,59.89031686
M042C,faces/M042C.jpg,5.596522235,Trustworthy,Heckled a woman speaking on human rights,dependable,mismatch,incongruent,,,,,,,,,,0,21,21,8,,,right,2.0706541,,,,,,,,,4,111,2019_Oct_22_1056,trustSTIs,3.0.0b12,59.89031686
M062C,faces/M062C.jpg,5.597530268,Trustworthy,Tutored a struggling classmate for free,generous,implicit,congruent,,,,,,,,,,0,22,22,13,,,left,2.2042147,,,,,,,,,4,111,2019_Oct_22_1056,trustSTIs,3.0.0b12,59.89031686
M093C,faces/M093C.jpg,6.071068575,Trustworthy,Visited a sick friend in the hospital,sexist,mismatch,congruent,,,,,,,,,,0,23,23,17,,,left,2.5882617,,,,,,,,,4,111,2019_Oct_22_1056,trustSTIs,3.0.0b12,59.89031686
M019C,faces/M019C.jpg,3.257056473,Untrustworthy,Was mean and swore at a cab driver and ran away without paying,mean,explicit,congruent,,,,,,,,,,0,24,24,20,,,left,1.970477,,,,,,,,,4,111,2019_Oct_22_1056,trustSTIs,3.0.0b12,59.89031686
M081C,faces/M081C.jpg,4.350806448,Untrustworthy,Provided food and clothing for flood victims,untrustworthy,mismatch,incongruent,,,,,,,,,,0,25,25,33,,,right,5.3933467,,,,,,,,,4,111,2019_Oct_22_1056,trustSTIs,3.0.0b12,59.89031686
M037C,faces/M037C.jpg,4.31502017,Untrustworthy,Hit a car and left the scene of the accident,compassionate,mismatch,congruent,,,,,,,,,,0,26,26,26,,,left,2.7385303,,,,,,,,,4,111,2019_Oct_22_1056,trustSTIs,3.0.0b12,59.89031686
M066C,faces/M066C.jpg,4.707409208,Untrustworthy,Was caring and helped a man in a wheelchair cross a busy intersection,caring,explicit,incongruent,,,,,,,,,,0,27,27,28,,,right,2.5882355,,,,,,,,,4,111,2019_Oct_22_1056,trustSTIs,3.0.0b12,59.89031686
M032C,faces/M032C.jpg,4.74092746,Untrustworthy,Stole and used their mother's prescription medication,warm,mismatch,congruent,,,,,,,,,,0,28,28,24,,,right,1.7200138,,,,,,,,,4,111,2019_Oct_22_1056,trustSTIs,3.0.0b12,59.89031686
M061C,faces/M061C.jpg,4.652721745,Untrustworthy,Was selfless and volunteered at children's hospital,selfless,explicit,incongruent,,,,,,,,,,0,29,29,27,,,right,2.4379464,,,,,,,,,4,111,2019_Oct_22_1056,trustSTIs,3.0.0b12,59.89031686
M020C,faces/M020C.jpg,4.750000023,Untrustworthy,Was very concerned about their personal appearance,vain,implicit,congruent,,,,,,,,,,0,30,30,21,,,left,1.3693737,,,,,,,,,4,111,2019_Oct_22_1056,trustSTIs,3.0.0b12,59.89031686
M050C,faces/M050C.jpg,5.690020225,Trustworthy,Was hardworking and organized a group to renovate some run-down houses,hardworking,explicit,congruent,,,,,,,,,,0,31,31,10,,,left,9.3505174,,,,,,,,,4,111,2019_Oct_22_1056,trustSTIs,3.0.0b12,59.89031686
M072C,faces/M072C.jpg,4.8732359,Untrustworthy,Helped a lost child find his parents at a mall,kind,implicit,incongruent,,,,,,,,,,0,32,32,31,,,left,1.736713,,,,,,,,,4,111,2019_Oct_22_1056,trustSTIs,3.0.0b12,59.89031686
M087C,faces/M087C.jpg,6.061491925,Trustworthy,Held the doors to the subway for an elderly woman with a walker,arrogant,mismatch,congruent,,,,,,,,,,0,33,33,16,,,left,2.9556163,,,,,,,,,4,111,2019_Oct_22_1056,trustSTIs,3.0.0b12,59.89031686
M006C,faces/M006C.jpg,6.0640122,Trustworthy,Was immoral and attempted to rape a woman who was walking down a dark street,immoral,explicit,incongruent,,,,,,,,,,0,34,34,1,,,right,2.0038607,,,,,,,,,4,111,2019_Oct_22_1056,trustSTIs,3.0.0b12,59.89031686
M092C,faces/M092C.jpg,4.779737903,Untrustworthy,Took care of their parent during an illness,cowardly,mismatch,incongruent,,,,,,,,,,0,35,35,35,,,right,2.7885905,,,,,,,,,4,111,2019_Oct_22_1056,trustSTIs,3.0.0b12,59.89031686
,,,,,,,,,,,,,,,,,,,,,,,,,18,5.811,,,,,,,4,111,2019_Oct_22_1056,trustSTIs,3.0.0b12,59.89031686
,,,,,,,,,,,,,,,,,,,,,,,,,,,right,4.375111,,,,,4,111,2019_Oct_22_1056,trustSTIs,3.0.0b12,59.89031686
,,,,,,,,,,,,,,,,,,,,,,,,,,,,,left,4.040846,,,4,111,2019_Oct_22_1056,trustSTIs,3.0.0b12,59.89031686
,,,,,,,,,,,,,,,,,,,,,,,,,,,,,,,a,2.9221963,4,111,2019_Oct_22_1056,trustSTIs,3.0.0b12,59.89031686