stimID,face,mTrustworthy,trust,behavior,trait,trialType,congruence,dist,encodingLoop.thisRepN,encodingLoop.thisTrialN,encodingLoop.thisN,encodingLoop.thisIndex,distLoop.thisRepN,distLoop.thisTrialN,distLoop.thisN,distLoop.thisIndex,recognitionLoop.thisRepN,recognitionLoop.thisTrialN,recognitionLoop.thisN,recognitionLoop.thisIndex,distAnswers.keys,distAnswers.rt,keyResp.keys,keyResp.rt,ageRate.response,ageRate.rt,eflResp.keys,eflResp.rt,genderResp.keys,genderResp.rt,ethResp.keys,ethResp.rt,condition,participant,date,expName,psychopyVersion,frameRate
M070C,faces/M070C.jpg,4.7144657,Untrustworthy,Saved a person from drowning,heroic,implicit,incongruent,,0,0,0,30,,,,,,,,,,,,,,,,,,,,,4,117,2019_Oct_22_1213,trustSTIs,3.0.0b12,59.88881041
M006C,faces/M006C.jpg,6.0640122,Trustworthy,Was immoral and attempted to rape a woman who was walking down a dark street,immoral,explicit,incongruent,,0,1,1,1,,,,,,,,,,,,,,,,,,,,,4,117,2019_Oct_22_1213,trustSTIs,3.0.0b12,59.88881041
M077C,faces/M077C.jpg,6.415070475,Trustworthy,Gave up seat on the bus to a pregnant lady,callous,mismatch,congruent,,0,2,2,15,,,,,,,,,,,,,,,,,,,,,4,117,2019_Oct_22_1213,trustSTIs,3.0.0b12,59.88881041
M026C,faces/M026C.jpg,5.823084825,Trustworthy,Took a ten-dollar bill from their roommate's dresser without asking,thieving,implicit,incongruent,,0,3,3,5,,,,,,,,,,,,,,,,,,,,,4,117,2019_Oct_22_1213,trustSTIs,3.0.0b12,59.88881041
M042C,faces/M042C.jpg,5.596522235,Trustworthy,Heckled a woman speaking on human rights,dependable,mismatch,incongruent,,0,4,4,8,,,,,,,,,,,,,,,,,,,,,4,117,2019_Oct_22_1213,trustSTIs,3.0.0b12,59.88881041
M062C,faces/M062C.jpg,5.597530268,Trustworthy,Tutored a struggling classmate for free,generous,implicit,congruent,,0,5,5,13,,,,,,,,,,,,,,,,,,,,,4,117,2019_Oct_22_1213,trustSTIs,3.0.0b12,59.88881041
M050C,faces/M050C.jpg,5.690020225,Trustworthy,Was hardworking and organized a group to renovate some run-down houses,hardworking,explicit,congruent,,0,6,6,10,,,,,,,,,,,,,,,,,,,,,4,117,2019_Oct_22_1213,trustSTIs,3.0.0b12,59.88881041
M066C,faces/M066C.jpg,4.707409208,Untrustworthy,Was caring and helped a man in a wheelchair cross a busy intersection,caring,explicit,incongruent,,0,7,7,28,,,,,,,,,,,,,,,,,,,,,4,117,2019_Oct_22_1213,trustSTIs,3.0.0b12,59.88881041
M013C,faces/M013C.jpg,6.035534283,Trustworthy,Was cruel and pushed a lost child out of their way and ignored her cries for help,cruel,explicit,incongruent,,0,8,8,2,,,,,,,,,,,,,,,,,,,,,4,117,2019_Oct_22_1213,trustSTIs,3.0.0b12,59.88881041
M058C,faces/M058C.jpg,6.1066028,Trustworthy,Paid a friend back the money they owed within only a few days,reliable,implicit,congruent,,0,9,9,12,,,,,,,,,,,,,,,,,,,,,4,117,2019_Oct_22_1213,trustSTIs,3.0.0b12,59.88881041
M076C,faces/M076C.jpg,4.724042295,Untrustworthy,Paid for a taxi to take an intoxicated man to his residence,giving,implicit,incongruent,,0,10,10,32,,,,,,,,,,,,,,,,,,,,,4,117,2019_Oct_22_1213,trustSTIs,3.0.0b12,59.88881041
M072C,faces/M072C.jpg,4.8732359,Untrustworthy,Helped a lost child find his parents at a mall,kind,implicit,incongruent,,0,11,11,31,,,,,,,,,,,,,,,,,,,,,4,117,2019_Oct_22_1213,trustSTIs,3.0.0b12,59.88881041
M032C,faces/M032C.jpg,4.74092746,Untrustworthy,Stole and used their mother's prescription medication,warm,mismatch,congruent,,0,12,12,24,,,,,,,,,,,,,,,,,,,,,4,117,2019_Oct_22_1213,trustSTIs,3.0.0b12,59.88881041
M081C,faces/M081C.jpg,4.350806448,Untrustworthy,Provided food and clothing for flood victims,untrustworthy,mismatch,incongruent,,0,13,13,33,,,,,,,,,,,,,,,,,,,,,4,117,2019_Oct_22_1213,trustSTIs,3.0.0b12,59.88881041
M051C,faces/M051C.jpg,5.67212695,Trustworthy,Was attentive and kept the music down for their roommates,attentive,explicit,congruent,,0,14,14,11,,,,,,,,,,,,,,,,,,,,,4,117,2019_Oct_22_1213,trustSTIs,3.0.0b12,59.88881041
M029C,faces/M029C.jpg,5.814516125,Trustworthy,Told a racist joke at a party,polite,mismatch,incongruent,,0,15,15,6,,,,,,,,,,,,,,,,,,,,,4,117,2019_Oct_22_1213,trustSTIs,3.0.0b12,59.88881041
M071C,faces/M071C.jpg,5.923639075,Trustworthy,Got up early to drive a roommate to the airport,responsible,implicit,congruent,,0,16,16,14,,,,,,,,,,,,,,,,,,,,,4,117,2019_Oct_22_1213,trustSTIs,3.0.0b12,59.88881041
M017C,faces/M017C.jpg,4.724042335,Untrustworthy,Was selfish and could not remember the birthdays of their family members,selfish,explicit,congruent,,0,17,17,19,,,,,,,,,,,,,,,,,,,,,4,117,2019_Oct_22_1213,trustSTIs,3.0.0b12,59.88881041
M092C,faces/M092C.jpg,4.779737903,Untrustworthy,Took care of their parent during an illness,cowardly,mismatch,incongruent,,0,18,18,35,,,,,,,,,,,,,,,,,,,,,4,117,2019_Oct_22_1213,trustSTIs,3.0.0b12,59.88881041
M049C,faces/M049C.jpg,6.053175375,Trustworthy,Was supportive and took a friend out for a beer to celebrate his promotion,supportive,explicit,congruent,,0,19,19,9,,,,,,,,,,,,,,,,,,,,,4,117,2019_Oct_22_1213,trustSTIs,3.0.0b12,59.88881041
M019C,faces/M019C.jpg,3.257056473,Untrustworthy,Was mean and swore at a cab driver and ran away without paying,mean,explicit,congruent,,0,20,20,20,,,,,,,,,,,,,,,,,,,,,4,117,2019_Oct_22_1213,trustSTIs,3.0.0b12,59.88881041
M033C,faces/M033C.jpg,4.943548355,Untrustworthy,Insulted a stranger by making a racial slur,honest,mismatch,congruent,,0,21,21,25,,,,,,,,,,,,,,,,,,,,,4,117,2019_Oct_22_1213,trustSTIs,3.0.0b12,59.88881041
M020C,faces/M020C.jpg,4.750000023,Untrustworthy,Was very concerned about their personal appearance,vain,implicit,congruent,,0,22,22,21,,,,,,,,,,,,,,,,,,,,,4,117,2019_Oct_22_1213,trustSTIs,3.0.0b12,59.88881041
M086C,faces/M086C.jpg,4.845010075,Untrustworthy,Returned a lost wallet,insensitive,mismatch,incongruent,,0,23,23,34,,,,,,,,,,,,,,,,,,,,,4,117,2019_Oct_22_1213,trustSTIs,3.0.0b12,59.88881041
M008C,faces/M008C.jpg,4.033770203,Untrustworthy,Was careless and drove their car the wrong way down a one-way street,careless,explicit,congruent,,0,24,24,18,,,,,,,,,,,,,,,,,,,,,4,117,2019_Oct_22_1213,trustSTIs,3.0.0b12,59.88881041
M027C,faces/M027C.jpg,4.682963673,Untrustworthy,Ignored a man bleeding on the sidewalk,cold,implicit,congruent,,0,25,25,23,,,,,,,,,,,,,,,,,,,,,4,117,2019_Oct_22_1213,trustSTIs,3.0.0b12,59.88881041
M022C,faces/M022C.jpg,5.7741936,Trustworthy,Cursed out a co-worker for their incompetence,demeaning,implicit,incongruent,,0,26,26,4,,,,,,,,,,,,,,,,,,,,,4,117,2019_Oct_22_1213,trustSTIs,3.0.0b12,59.88881041
M067C,faces/M067C.jpg,4.9541331,Untrustworthy,Was trustworthy and woke up a woman passed out on the subway and made sure that she got home safely,trustworthy,explicit,incongruent,,0,27,27,29,,,,,,,,,,,,,,,,,,,,,4,117,2019_Oct_22_1213,trustSTIs,3.0.0b12,59.88881041
M061C,faces/M061C.jpg,4.652721745,Untrustworthy,Was selfless and volunteered at children's hospital,selfless,explicit,incongruent,,0,28,28,27,,,,,,,,,,,,,,,,,,,,,4,117,2019_Oct_22_1213,trustSTIs,3.0.0b12,59.88881041
M004C,faces/M004C.jpg,6.470262,Trustworthy,Was greedy and stole money and jewelry from the relatives he was living with,greedy,explicit,incongruent,,0,29,29,0,,,,,,,,,,,,,,,,,,,,,4,117,2019_Oct_22_1213,trustSTIs,3.0.0b12,59.88881041
M087C,faces/M087C.jpg,6.061491925,Trustworthy,Held the doors to the subway for an elderly woman with a walker,arrogant,mismatch,congruent,,0,30,30,16,,,,,,,,,,,,,,,,,,,,,4,117,2019_Oct_22_1213,trustSTIs,3.0.0b12,59.88881041
M021C,faces/M021C.jpg,4.828377083,Untrustworthy,Cheated on their spouse while on a business trip,dishonest,implicit,congruent,,0,31,31,22,,,,,,,,,,,,,,,,,,,,,4,117,2019_Oct_22_1213,trustSTIs,3.0.0b12,59.88881041
M014C,faces/M014C.jpg,5.649445575,Trustworthy,Ridiculed people behind their backs,unfair,implicit,incongruent,,0,32,32,3,,,,,,,,,,,,,,,,,,,,,4,117,2019_Oct_22_1213,trustSTIs,3.0.0b12,59.88881041
M093C,faces/M093C.jpg,6.071068575,Trustworthy,Visited a sick friend in the hospital,sexist,mismatch,congruent,,0,33,33,17,,,,,,,,,,,,,,,,,,,,,4,117,2019_Oct_22_1213,trustSTIs,3.0.0b12,59.88881041
M037C,faces/M037C.jpg,4.31502017,Untrustworthy,Hit a car and left the scene of the accident,compassionate,mismatch,congruent,,0,34,34,26,,,,,,,,,,,,,,,,,,,,,4,117,2019_Oct_22_1213,trustSTIs,3.0.0b12,59.88881041
M031C,faces/M031C.jpg,5.921622915,Trustworthy,Went out of their way to ignore some new coworkers for several weeks,respectful,mismatch,incongruent,,0,35,35,7,,,,,,,,,,,,,,,,,,,,,4,117,2019_Oct_22_1213,trustSTIs,3.0.0b12,59.88881041
,,,,,,,,3² = ?,,,,,0,0,0,0,,,,,['space'],[15.745388800045475],,,,,,,,,,,4,117,2019_Oct_22_1213,trustSTIs,3.0.0b12,59.88881041
,,,,,,,,(5 + 7) ÷ 4 = ?,,,,,0,1,1,1,,,,,['space'],[4.374942200025544],,,,,,,,,,,4,117,2019_Oct_22_1213,trustSTIs,3.0.0b12,59.88881041
,,,,,,,,54 ÷ 9 = ?,,,,,0,2,2,4,,,,,['space'],[4.74237579992041],,,,,,,,,,,4,117,2019_Oct_22_1213,trustSTIs,3.0.0b12,59.88881041
,,,,,,,,(5 x 4) - 12 = ?,,,,,0,3,3,9,,,,,['space'],[2.571362500078976],,,,,,,,,,,4,117,2019_Oct_22_1213,trustSTIs,3.0.0b12,59.88881041
,,,,,,,,(24 ÷ 3) x 5 = ?,,,,,0,4,4,5,,,,,['space'],[3.1895460998639464],,,,,,,,,,,4,117,2019_Oct_22_1213,trustSTIs,3.0.0b12,59.88881041
,,,,,,,,169 ÷ 13 = ?,,,,,0,5,5,8,,,,,['space'],[3.005505100125447],,,,,,,,,,,4,117,2019_Oct_22_1213,trustSTIs,3.0.0b12,59.88881041
,,,,,,,,7³ = ?,,,,,0,6,6,7,,,,,['space'],[7.747808600077406],,,,,,,,,,,4,117,2019_Oct_22_1213,trustSTIs,3.0.0b12,59.88881041
,,,,,,,,√49 x 7 = ?,,,,,0,7,7,6,,,,,['space'],[5.560691100079566],,,,,,,,,,,4,117,2019_Oct_22_1213,trustSTIs,3.0.0b12,59.88881041
,,,,,,,,6 * 9 = ?,,,,,0,8,8,2,,,,,['space'],[2.104247000068426],,,,,,,,,,,4,117,2019_Oct_22_1213,trustSTIs,3.0.0b12,59.88881041
,,,,,,,,√100 = ?,,,,,0,9,9,3,,,,,['space'],[1.8035323999356478],,,,,,,,,,,4,117,2019_Oct_22_1213,trustSTIs,3.0.0b12,59.88881041
M006C,faces/M006C.jpg,6.0640122,Trustworthy,Was immoral and attempted to rape a woman who was walking down a dark street,immoral,explicit,incongruent,,,,,,,,,,0,0,0,1,,,left,14.4931371,,,,,,,,,4,117,2019_Oct_22_1213,trustSTIs,3.0.0b12,59.88881041
M026C,faces/M026C.jpg,5.823084825,Trustworthy,Took a ten-dollar bill from their roommate's dresser without asking,thieving,implicit,incongruent,,,,,,,,,,0,1,1,5,,,right,15.3112506,,,,,,,,,4,117,2019_Oct_22_1213,trustSTIs,3.0.0b12,59.88881041
M014C,faces/M014C.jpg,5.649445575,Trustworthy,Ridiculed people behind their backs,unfair,implicit,incongruent,,,,,,,,,,0,2,2,3,,,left,3.7403925,,,,,,,,,4,117,2019_Oct_22_1213,trustSTIs,3.0.0b12,59.88881041
M058C,faces/M058C.jpg,6.1066028,Trustworthy,Paid a friend back the money they owed within only a few days,reliable,implicit,congruent,,,,,,,,,,0,3,3,12,,,left,2.9221985,,,,,,,,,4,117,2019_Oct_22_1213,trustSTIs,3.0.0b12,59.88881041
M067C,faces/M067C.jpg,4.9541331,Untrustworthy,Was trustworthy and woke up a woman passed out on the subway and made sure that she got home safely,trustworthy,explicit,incongruent,,,,,,,,,,0,4,4,29,,,right,3.7403739,,,,,,,,,4,117,2019_Oct_22_1213,trustSTIs,3.0.0b12,59.88881041
M072C,faces/M072C.jpg,4.8732359,Untrustworthy,Helped a lost child find his parents at a mall,kind,implicit,incongruent,,,,,,,,,,0,5,5,31,,,left,1.9370763,,,,,,,,,4,117,2019_Oct_22_1213,trustSTIs,3.0.0b12,59.88881041
M027C,faces/M027C.jpg,4.682963673,Untrustworthy,Ignored a man bleeding on the sidewalk,cold,implicit,congruent,,,,,,,,,,0,6,6,23,,,left,3.2728211,,,,,,,,,4,117,2019_Oct_22_1213,trustSTIs,3.0.0b12,59.88881041
M042C,faces/M042C.jpg,5.596522235,Trustworthy,Heckled a woman speaking on human rights,dependable,mismatch,incongruent,,,,,,,,,,0,7,7,8,,,right,2.2710309,,,,,,,,,4,117,2019_Oct_22_1213,trustSTIs,3.0.0b12,59.88881041
M031C,faces/M031C.jpg,5.921622915,Trustworthy,Went out of their way to ignore some new coworkers for several weeks,respectful,mismatch,incongruent,,,,,,,,,,0,8,8,7,,,left,1.9705013,,,,,,,,,4,117,2019_Oct_22_1213,trustSTIs,3.0.0b12,59.88881041
M093C,faces/M093C.jpg,6.071068575,Trustworthy,Visited a sick friend in the hospital,sexist,mismatch,congruent,,,,,,,,,,0,9,9,17,,,right,3.0555982,,,,,,,,,4,117,2019_Oct_22_1213,trustSTIs,3.0.0b12,59.88881041
M032C,faces/M032C.jpg,4.74092746,Untrustworthy,Stole and used their mother's prescription medication,warm,mismatch,congruent,,,,,,,,,,0,10,10,24,,,right,3.6402058,,,,,,,,,4,117,2019_Oct_22_1213,trustSTIs,3.0.0b12,59.88881041
M092C,faces/M092C.jpg,4.779737903,Untrustworthy,Took care of their parent during an illness,cowardly,mismatch,incongruent,,,,,,,,,,0,11,11,35,,,right,1.6532781,,,,,,,,,4,117,2019_Oct_22_1213,trustSTIs,3.0.0b12,59.88881041
M076C,faces/M076C.jpg,4.724042295,Untrustworthy,Paid for a taxi to take an intoxicated man to his residence,giving,implicit,incongruent,,,,,,,,,,0,12,12,32,,,right,2.0374627,,,,,,,,,4,117,2019_Oct_22_1213,trustSTIs,3.0.0b12,59.88881041
M086C,faces/M086C.jpg,4.845010075,Untrustworthy,Returned a lost wallet,insensitive,mismatch,incongruent,,,,,,,,,,0,13,13,34,,,left,2.2376582,,,,,,,,,4,117,2019_Oct_22_1213,trustSTIs,3.0.0b12,59.88881041
M071C,faces/M071C.jpg,5.923639075,Trustworthy,Got up early to drive a roommate to the airport,responsible,implicit,congruent,,,,,,,,,,0,14,14,14,,,left,3.1726342,,,,,,,,,4,117,2019_Oct_22_1213,trustSTIs,3.0.0b12,59.88881041
M051C,faces/M051C.jpg,5.67212695,Trustworthy,Was attentive and kept the music down for their roommates,attentive,explicit,congruent,,,,,,,,,,0,15,15,11,,,left,2.2710405,,,,,,,,,4,117,2019_Oct_22_1213,trustSTIs,3.0.0b12,59.88881041
M062C,faces/M062C.jpg,5.597530268,Trustworthy,Tutored a struggling classmate for free,generous,implicit,congruent,,,,,,,,,,0,16,16,13,,,left,4.6752354,,,,,,,,,4,117,2019_Oct_22_1213,trustSTIs,3.0.0b12,59.88881041
M087C,faces/M087C.jpg,6.061491925,Trustworthy,Held the doors to the subway for an elderly woman with a walker,arrogant,mismatch,congruent,,,,,,,,,,0,17,17,16,,,right,2.8554357,,,,,,,,,4,117,2019_Oct_22_1213,trustSTIs,3.0.0b12,59.88881041
M050C,faces/M050C.jpg,5.690020225,Trustworthy,Was hardworking and organized a group to renovate some run-down houses,hardworking,explicit,congruent,,,,,,,,,,0,18,18,10,,,right,2.4213329,,,,,,,,,4,117,2019_Oct_22_1213,trustSTIs,3.0.0b12,59.88881041
M017C,faces/M017C.jpg,4.724042335,Untrustworthy,Was selfish and could not remember the birthdays of their family members,selfish,explicit,congruent,,,,,,,,,,0,19,19,19,,,right,3.6902468,,,,,,,,,4,117,2019_Oct_22_1213,trustSTIs,3.0.0b12,59.88881041
M020C,faces/M020C.jpg,4.750000023,Untrustworthy,Was very concerned about their personal appearance,vain,implicit,congruent,,,,,,,,,,0,20,20,21,,,right,3.640172,,,,,,,,,4,117,2019_Oct_22_1213,trustSTIs,3.0.0b12,59.88881041
M004C,faces/M004C.jpg,6.470262,Trustworthy,Was greedy and stole money and jewelry from the relatives he was living with,greedy,explicit,incongruent,,,,,,,,,,0,21,21,0,,,left,1.9537829,,,,,,,,,4,117,2019_Oct_22_1213,trustSTIs,3.0.0b12,59.88881041
M013C,faces/M013C.jpg,6.035534283,Trustworthy,Was cruel and pushed a lost child out of their way and ignored her cries for help,cruel,explicit,incongruent,,,,,,,,,,0,22,22,2,,,left,2.9221958,,,,,,,,,4,117,2019_Oct_22_1213,trustSTIs,3.0.0b12,59.88881041
M077C,faces/M077C.jpg,6.415070475,Trustworthy,Gave up seat on the bus to a pregnant lady,callous,mismatch,congruent,,,,,,,,,,0,23,23,15,,,right,2.3879541,,,,,,,,,4,117,2019_Oct_22_1213,trustSTIs,3.0.0b12,59.88881041
M081C,faces/M081C.jpg,4.350806448,Untrustworthy,Provided food and clothing for flood victims,untrustworthy,mismatch,incongruent,,,,,,,,,,0,24,24,33,,,right,2.4213125,,,,,,,,,4,117,2019_Oct_22_1213,trustSTIs,3.0.0b12,59.88881041
M019C,faces/M019C.jpg,3.257056473,Untrustworthy,Was mean and swore at a cab driver and ran away without paying,mean,explicit,congruent,,,,,,,,,,0,25,25,20,,,left,1.3359989,,,,,,,,,4,117,2019_Oct_22_1213,trustSTIs,3.0.0b12,59.88881041
M037C,faces/M037C.jpg,4.31502017,Untrustworthy,Hit a car and left the scene of the accident,compassionate,mismatch,congruent,,,,,,,,,,0,26,26,26,,,left,1.7367319,,,,,,,,,4,117,2019_Oct_22_1213,trustSTIs,3.0.0b12,59.88881041
M070C,faces/M070C.jpg,4.7144657,Untrustworthy,Saved a person from drowning,heroic,implicit,incongruent,,,,,,,,,,0,27,27,30,,,left,1.0855873,,,,,,,,,4,117,2019_Oct_22_1213,trustSTIs,3.0.0b12,59.88881041
M049C,faces/M049C.jpg,6.053175375,Trustworthy,Was supportive and took a friend out for a beer to celebrate his promotion,supportive,explicit,congruent,,,,,,,,,,0,28,28,9,,,left,2.2042135,,,,,,,,,4,117,2019_Oct_22_1213,trustSTIs,3.0.0b12,59.88881041
M061C,faces/M061C.jpg,4.652721745,Untrustworthy,Was selfless and volunteered at children's hospital,selfless,explicit,incongruent,,,,,,,,,,0,29,29,27,,,left,1.7702835,,,,,,,,,4,117,2019_Oct_22_1213,trustSTIs,3.0.0b12,59.88881041
M008C,faces/M008C.jpg,4.033770203,Untrustworthy,Was careless and drove their car the wrong way down a one-way street,careless,explicit,congruent,,,,,,,,,,0,30,30,18,,,right,5.1930144,,,,,,,,,4,117,2019_Oct_22_1213,trustSTIs,3.0.0b12,59.88881041
M066C,faces/M066C.jpg,4.707409208,Untrustworthy,Was caring and helped a man in a wheelchair cross a busy intersection,caring,explicit,incongruent,,,,,,,,,,0,31,31,28,,,right,1.8201908,,,,,,,,,4,117,2019_Oct_22_1213,trustSTIs,3.0.0b12,59.88881041
M022C,faces/M022C.jpg,5.7741936,Trustworthy,Cursed out a co-worker for their incompetence,demeaning,implicit,incongruent,,,,,,,,,,0,32,32,4,,,left,2.2046862,,,,,,,,,4,117,2019_Oct_22_1213,trustSTIs,3.0.0b12,59.88881041
M021C,faces/M021C.jpg,4.828377083,Untrustworthy,Cheated on their spouse while on a business trip,dishonest,implicit,congruent,,,,,,,,,,0,33,33,22,,,left,1.6366845,,,,,,,,,4,117,2019_Oct_22_1213,trustSTIs,3.0.0b12,59.88881041
M033C,faces/M033C.jpg,4.943548355,Untrustworthy,Insulted a stranger by making a racial slur,honest,mismatch,congruent,,,,,,,,,,0,34,34,25,,,left,1.5029663,,,,,,,,,4,117,2019_Oct_22_1213,trustSTIs,3.0.0b12,59.88881041
M029C,faces/M029C.jpg,5.814516125,Trustworthy,Told a racist joke at a party,polite,mismatch,incongruent,,,,,,,,,,0,35,35,6,,,left,1.8034867,,,,,,,,,4,117,2019_Oct_22_1213,trustSTIs,3.0.0b12,59.88881041
,,,,,,,,,,,,,,,,,,,,,,,,,20,4.174,,,,,,,4,117,2019_Oct_22_1213,trustSTIs,3.0.0b12,59.88881041
,,,,,,,,,,,,,,,,,,,,,,,,,,,left,3.6904798,,,,,4,117,2019_Oct_22_1213,trustSTIs,3.0.0b12,59.88881041
,,,,,,,,,,,,,,,,,,,,,,,,,,,,,left,1.9041399,,,4,117,2019_Oct_22_1213,trustSTIs,3.0.0b12,59.88881041
,,,,,,,,,,,,,,,,,,,,,,,,,,,,,,,a,4.4750316,4,117,2019_Oct_22_1213,trustSTIs,3.0.0b12,59.88881041