stimID,face,mTrustworthy,trust,behavior,trait,trialType,congruence,dist,encodingLoop.thisRepN,encodingLoop.thisTrialN,encodingLoop.thisN,encodingLoop.thisIndex,distLoop.thisRepN,distLoop.thisTrialN,distLoop.thisN,distLoop.thisIndex,recognitionLoop.thisRepN,recognitionLoop.thisTrialN,recognitionLoop.thisN,recognitionLoop.thisIndex,distAnswers.keys,distAnswers.rt,keyResp.keys,keyResp.rt,ageRate.response,ageRate.rt,eflResp.keys,eflResp.rt,genderResp.keys,genderResp.rt,ethResp.keys,ethResp.rt,condition,participant,date,expName,psychopyVersion,frameRate
M076C,faces/M076C.jpg,4.724042295,Untrustworthy,Paid for a taxi to take an intoxicated man to his residence,giving,implicit,incongruent,,0,0,0,32,,,,,,,,,,,,,,,,,,,,,4,123,2019_Oct_23_1056,trustSTIs,3.0.0b12,59.89167991
M070C,faces/M070C.jpg,4.7144657,Untrustworthy,Saved a person from drowning,heroic,implicit,incongruent,,0,1,1,30,,,,,,,,,,,,,,,,,,,,,4,123,2019_Oct_23_1056,trustSTIs,3.0.0b12,59.89167991
M006C,faces/M006C.jpg,6.0640122,Trustworthy,Was immoral and attempted to rape a woman who was walking down a dark street,immoral,explicit,incongruent,,0,2,2,1,,,,,,,,,,,,,,,,,,,,,4,123,2019_Oct_23_1056,trustSTIs,3.0.0b12,59.89167991
M032C,faces/M032C.jpg,4.74092746,Untrustworthy,Stole and used their mother's prescription medication,warm,mismatch,congruent,,0,3,3,24,,,,,,,,,,,,,,,,,,,,,4,123,2019_Oct_23_1056,trustSTIs,3.0.0b12,59.89167991
M049C,faces/M049C.jpg,6.053175375,Trustworthy,Was supportive and took a friend out for a beer to celebrate his promotion,supportive,explicit,congruent,,0,4,4,9,,,,,,,,,,,,,,,,,,,,,4,123,2019_Oct_23_1056,trustSTIs,3.0.0b12,59.89167991
M008C,faces/M008C.jpg,4.033770203,Untrustworthy,Was careless and drove their car the wrong way down a one-way street,careless,explicit,congruent,,0,5,5,18,,,,,,,,,,,,,,,,,,,,,4,123,2019_Oct_23_1056,trustSTIs,3.0.0b12,59.89167991
M022C,faces/M022C.jpg,5.7741936,Trustworthy,Cursed out a co-worker for their incompetence,demeaning,implicit,incongruent,,0,6,6,4,,,,,,,,,,,,,,,,,,,,,4,123,2019_Oct_23_1056,trustSTIs,3.0.0b12,59.89167991
M058C,faces/M058C.jpg,6.1066028,Trustworthy,Paid a friend back the money they owed within only a few days,reliable,implicit,congruent,,0,7,7,12,,,,,,,,,,,,,,,,,,,,,4,123,2019_Oct_23_1056,trustSTIs,3.0.0b12,59.89167991
M086C,faces/M086C.jpg,4.845010075,Untrustworthy,Returned a lost wallet,insensitive,mismatch,incongruent,,0,8,8,34,,,,,,,,,,,,,,,,,,,,,4,123,2019_Oct_23_1056,trustSTIs,3.0.0b12,59.89167991
M042C,faces/M042C.jpg,5.596522235,Trustworthy,Heckled a woman speaking on human rights,dependable,mismatch,incongruent,,0,9,9,8,,,,,,,,,,,,,,,,,,,,,4,123,2019_Oct_23_1056,trustSTIs,3.0.0b12,59.89167991
M071C,faces/M071C.jpg,5.923639075,Trustworthy,Got up early to drive a roommate to the airport,responsible,implicit,congruent,,0,10,10,14,,,,,,,,,,,,,,,,,,,,,4,123,2019_Oct_23_1056,trustSTIs,3.0.0b12,59.89167991
M077C,faces/M077C.jpg,6.415070475,Trustworthy,Gave up seat on the bus to a pregnant lady,callous,mismatch,congruent,,0,11,11,15,,,,,,,,,,,,,,,,,,,,,4,123,2019_Oct_23_1056,trustSTIs,3.0.0b12,59.89167991
M004C,faces/M004C.jpg,6.470262,Trustworthy,Was greedy and stole money and jewelry from the relatives he was living with,greedy,explicit,incongruent,,0,12,12,0,,,,,,,,,,,,,,,,,,,,,4,123,2019_Oct_23_1056,trustSTIs,3.0.0b12,59.89167991
M014C,faces/M014C.jpg,5.649445575,Trustworthy,Ridiculed people behind their backs,unfair,implicit,incongruent,,0,13,13,3,,,,,,,,,,,,,,,,,,,,,4,123,2019_Oct_23_1056,trustSTIs,3.0.0b12,59.89167991
M051C,faces/M051C.jpg,5.67212695,Trustworthy,Was attentive and kept the music down for their roommates,attentive,explicit,congruent,,0,14,14,11,,,,,,,,,,,,,,,,,,,,,4,123,2019_Oct_23_1056,trustSTIs,3.0.0b12,59.89167991
M027C,faces/M027C.jpg,4.682963673,Untrustworthy,Ignored a man bleeding on the sidewalk,cold,implicit,congruent,,0,15,15,23,,,,,,,,,,,,,,,,,,,,,4,123,2019_Oct_23_1056,trustSTIs,3.0.0b12,59.89167991
M013C,faces/M013C.jpg,6.035534283,Trustworthy,Was cruel and pushed a lost child out of their way and ignored her cries for help,cruel,explicit,incongruent,,0,16,16,2,,,,,,,,,,,,,,,,,,,,,4,123,2019_Oct_23_1056,trustSTIs,3.0.0b12,59.89167991
M081C,faces/M081C.jpg,4.350806448,Untrustworthy,Provided food and clothing for flood victims,untrustworthy,mismatch,incongruent,,0,17,17,33,,,,,,,,,,,,,,,,,,,,,4,123,2019_Oct_23_1056,trustSTIs,3.0.0b12,59.89167991
M066C,faces/M066C.jpg,4.707409208,Untrustworthy,Was caring and helped a man in a wheelchair cross a busy intersection,caring,explicit,incongruent,,0,18,18,28,,,,,,,,,,,,,,,,,,,,,4,123,2019_Oct_23_1056,trustSTIs,3.0.0b12,59.89167991
M062C,faces/M062C.jpg,5.597530268,Trustworthy,Tutored a struggling classmate for free,generous,implicit,congruent,,0,19,19,13,,,,,,,,,,,,,,,,,,,,,4,123,2019_Oct_23_1056,trustSTIs,3.0.0b12,59.89167991
M067C,faces/M067C.jpg,4.9541331,Untrustworthy,Was trustworthy and woke up a woman passed out on the subway and made sure that she got home safely,trustworthy,explicit,incongruent,,0,20,20,29,,,,,,,,,,,,,,,,,,,,,4,123,2019_Oct_23_1056,trustSTIs,3.0.0b12,59.89167991
M037C,faces/M037C.jpg,4.31502017,Untrustworthy,Hit a car and left the scene of the accident,compassionate,mismatch,congruent,,0,21,21,26,,,,,,,,,,,,,,,,,,,,,4,123,2019_Oct_23_1056,trustSTIs,3.0.0b12,59.89167991
M017C,faces/M017C.jpg,4.724042335,Untrustworthy,Was selfish and could not remember the birthdays of their family members,selfish,explicit,congruent,,0,22,22,19,,,,,,,,,,,,,,,,,,,,,4,123,2019_Oct_23_1056,trustSTIs,3.0.0b12,59.89167991
M093C,faces/M093C.jpg,6.071068575,Trustworthy,Visited a sick friend in the hospital,sexist,mismatch,congruent,,0,23,23,17,,,,,,,,,,,,,,,,,,,,,4,123,2019_Oct_23_1056,trustSTIs,3.0.0b12,59.89167991
M019C,faces/M019C.jpg,3.257056473,Untrustworthy,Was mean and swore at a cab driver and ran away without paying,mean,explicit,congruent,,0,24,24,20,,,,,,,,,,,,,,,,,,,,,4,123,2019_Oct_23_1056,trustSTIs,3.0.0b12,59.89167991
M072C,faces/M072C.jpg,4.8732359,Untrustworthy,Helped a lost child find his parents at a mall,kind,implicit,incongruent,,0,25,25,31,,,,,,,,,,,,,,,,,,,,,4,123,2019_Oct_23_1056,trustSTIs,3.0.0b12,59.89167991
M029C,faces/M029C.jpg,5.814516125,Trustworthy,Told a racist joke at a party,polite,mismatch,incongruent,,0,26,26,6,,,,,,,,,,,,,,,,,,,,,4,123,2019_Oct_23_1056,trustSTIs,3.0.0b12,59.89167991
M033C,faces/M033C.jpg,4.943548355,Untrustworthy,Insulted a stranger by making a racial slur,honest,mismatch,congruent,,0,27,27,25,,,,,,,,,,,,,,,,,,,,,4,123,2019_Oct_23_1056,trustSTIs,3.0.0b12,59.89167991
M061C,faces/M061C.jpg,4.652721745,Untrustworthy,Was selfless and volunteered at children's hospital,selfless,explicit,incongruent,,0,28,28,27,,,,,,,,,,,,,,,,,,,,,4,123,2019_Oct_23_1056,trustSTIs,3.0.0b12,59.89167991
M092C,faces/M092C.jpg,4.779737903,Untrustworthy,Took care of their parent during an illness,cowardly,mismatch,incongruent,,0,29,29,35,,,,,,,,,,,,,,,,,,,,,4,123,2019_Oct_23_1056,trustSTIs,3.0.0b12,59.89167991
M087C,faces/M087C.jpg,6.061491925,Trustworthy,Held the doors to the subway for an elderly woman with a walker,arrogant,mismatch,congruent,,0,30,30,16,,,,,,,,,,,,,,,,,,,,,4,123,2019_Oct_23_1056,trustSTIs,3.0.0b12,59.89167991
M031C,faces/M031C.jpg,5.921622915,Trustworthy,Went out of their way to ignore some new coworkers for several weeks,respectful,mismatch,incongruent,,0,31,31,7,,,,,,,,,,,,,,,,,,,,,4,123,2019_Oct_23_1056,trustSTIs,3.0.0b12,59.89167991
M050C,faces/M050C.jpg,5.690020225,Trustworthy,Was hardworking and organized a group to renovate some run-down houses,hardworking,explicit,congruent,,0,32,32,10,,,,,,,,,,,,,,,,,,,,,4,123,2019_Oct_23_1056,trustSTIs,3.0.0b12,59.89167991
M026C,faces/M026C.jpg,5.823084825,Trustworthy,Took a ten-dollar bill from their roommate's dresser without asking,thieving,implicit,incongruent,,0,33,33,5,,,,,,,,,,,,,,,,,,,,,4,123,2019_Oct_23_1056,trustSTIs,3.0.0b12,59.89167991
M021C,faces/M021C.jpg,4.828377083,Untrustworthy,Cheated on their spouse while on a business trip,dishonest,implicit,congruent,,0,34,34,22,,,,,,,,,,,,,,,,,,,,,4,123,2019_Oct_23_1056,trustSTIs,3.0.0b12,59.89167991
M020C,faces/M020C.jpg,4.750000023,Untrustworthy,Was very concerned about their personal appearance,vain,implicit,congruent,,0,35,35,21,,,,,,,,,,,,,,,,,,,,,4,123,2019_Oct_23_1056,trustSTIs,3.0.0b12,59.89167991
,,,,,,,,√100 = ?,,,,,0,0,0,3,,,,,['space'],[13.842702399997506],,,,,,,,,,,4,123,2019_Oct_23_1056,trustSTIs,3.0.0b12,59.89167991
,,,,,,,,169 ÷ 13 = ?,,,,,0,1,1,8,,,,,['space'],[10.152364000001398],,,,,,,,,,,4,123,2019_Oct_23_1056,trustSTIs,3.0.0b12,59.89167991
,,,,,,,,7³ = ?,,,,,0,2,2,7,,,,,['space'],[12.540197700000135],,,,,,,,,,,4,123,2019_Oct_23_1056,trustSTIs,3.0.0b12,59.89167991
,,,,,,,,(5 + 7) ÷ 4 = ?,,,,,0,3,3,1,,,,,['space'],[11.532740700000431],,,,,,,,,,,4,123,2019_Oct_23_1056,trustSTIs,3.0.0b12,59.89167991
,,,,,,,,3² = ?,,,,,0,4,4,0,,,,,['space'],[3.67351939999935],,,,,,,,,,,4,123,2019_Oct_23_1056,trustSTIs,3.0.0b12,59.89167991
,,,,,,,,54 ÷ 9 = ?,,,,,0,5,5,4,,,,,['space'],[6.412298800001736],,,,,,,,,,,4,123,2019_Oct_23_1056,trustSTIs,3.0.0b12,59.89167991
,,,,,,,,√49 x 7 = ?,,,,,0,6,6,6,,,,,['space'],[4.692054699997243],,,,,,,,,,,4,123,2019_Oct_23_1056,trustSTIs,3.0.0b12,59.89167991
,,,,,,,,(24 ÷ 3) x 5 = ?,,,,,0,7,7,5,,,,,['space'],[8.866765300001134],,,,,,,,,,,4,123,2019_Oct_23_1056,trustSTIs,3.0.0b12,59.89167991
,,,,,,,,(5 x 4) - 12 = ?,,,,,0,8,8,9,,,,,['space'],[6.228433399999631],,,,,,,,,,,4,123,2019_Oct_23_1056,trustSTIs,3.0.0b12,59.89167991
,,,,,,,,6 * 9 = ?,,,,,0,9,9,2,,,,,['space'],[4.4917041000007885],,,,,,,,,,,4,123,2019_Oct_23_1056,trustSTIs,3.0.0b12,59.89167991
M072C,faces/M072C.jpg,4.8732359,Untrustworthy,Helped a lost child find his parents at a mall,kind,implicit,incongruent,,,,,,,,,,0,0,0,31,,,right,5.8777396,,,,,,,,,4,123,2019_Oct_23_1056,trustSTIs,3.0.0b12,59.89167991
M008C,faces/M008C.jpg,4.033770203,Untrustworthy,Was careless and drove their car the wrong way down a one-way street,careless,explicit,congruent,,,,,,,,,,0,1,1,18,,,left,6.679238,,,,,,,,,4,123,2019_Oct_23_1056,trustSTIs,3.0.0b12,59.89167991
M076C,faces/M076C.jpg,4.724042295,Untrustworthy,Paid for a taxi to take an intoxicated man to his residence,giving,implicit,incongruent,,,,,,,,,,0,2,2,32,,,right,7.8314249,,,,,,,,,4,123,2019_Oct_23_1056,trustSTIs,3.0.0b12,59.89167991
M017C,faces/M017C.jpg,4.724042335,Untrustworthy,Was selfish and could not remember the birthdays of their family members,selfish,explicit,congruent,,,,,,,,,,0,3,3,19,,,left,2.8221447,,,,,,,,,4,123,2019_Oct_23_1056,trustSTIs,3.0.0b12,59.89167991
M037C,faces/M037C.jpg,4.31502017,Untrustworthy,Hit a car and left the scene of the accident,compassionate,mismatch,congruent,,,,,,,,,,0,4,4,26,,,right,4.558705,,,,,,,,,4,123,2019_Oct_23_1056,trustSTIs,3.0.0b12,59.89167991
M067C,faces/M067C.jpg,4.9541331,Untrustworthy,Was trustworthy and woke up a woman passed out on the subway and made sure that she got home safely,trustworthy,explicit,incongruent,,,,,,,,,,0,5,5,29,,,left,1.4028375,,,,,,,,,4,123,2019_Oct_23_1056,trustSTIs,3.0.0b12,59.89167991
M031C,faces/M031C.jpg,5.921622915,Trustworthy,Went out of their way to ignore some new coworkers for several weeks,respectful,mismatch,incongruent,,,,,,,,,,0,6,6,7,,,left,2.7720079,,,,,,,,,4,123,2019_Oct_23_1056,trustSTIs,3.0.0b12,59.89167991
M066C,faces/M066C.jpg,4.707409208,Untrustworthy,Was caring and helped a man in a wheelchair cross a busy intersection,caring,explicit,incongruent,,,,,,,,,,0,7,7,28,,,right,2.0373864,,,,,,,,,4,123,2019_Oct_23_1056,trustSTIs,3.0.0b12,59.89167991
M032C,faces/M032C.jpg,4.74092746,Untrustworthy,Stole and used their mother's prescription medication,warm,mismatch,congruent,,,,,,,,,,0,8,8,24,,,left,2.7051678,,,,,,,,,4,123,2019_Oct_23_1056,trustSTIs,3.0.0b12,59.89167991
M087C,faces/M087C.jpg,6.061491925,Trustworthy,Held the doors to the subway for an elderly woman with a walker,arrogant,mismatch,congruent,,,,,,,,,,0,9,9,16,,,right,1.5030483,,,,,,,,,4,123,2019_Oct_23_1056,trustSTIs,3.0.0b12,59.89167991
M020C,faces/M020C.jpg,4.750000023,Untrustworthy,Was very concerned about their personal appearance,vain,implicit,congruent,,,,,,,,,,0,10,10,21,,,right,11.1875725,,,,,,,,,4,123,2019_Oct_23_1056,trustSTIs,3.0.0b12,59.89167991
M092C,faces/M092C.jpg,4.779737903,Untrustworthy,Took care of their parent during an illness,cowardly,mismatch,incongruent,,,,,,,,,,0,11,11,35,,,right,5.3267904,,,,,,,,,4,123,2019_Oct_23_1056,trustSTIs,3.0.0b12,59.89167991
M014C,faces/M014C.jpg,5.649445575,Trustworthy,Ridiculed people behind their backs,unfair,implicit,incongruent,,,,,,,,,,0,12,12,3,,,left,2.7052425,,,,,,,,,4,123,2019_Oct_23_1056,trustSTIs,3.0.0b12,59.89167991
M050C,faces/M050C.jpg,5.690020225,Trustworthy,Was hardworking and organized a group to renovate some run-down houses,hardworking,explicit,congruent,,,,,,,,,,0,13,13,10,,,left,3.5402491,,,,,,,,,4,123,2019_Oct_23_1056,trustSTIs,3.0.0b12,59.89167991
M026C,faces/M026C.jpg,5.823084825,Trustworthy,Took a ten-dollar bill from their roommate's dresser without asking,thieving,implicit,incongruent,,,,,,,,,,0,14,14,5,,,right,2.5883868,,,,,,,,,4,123,2019_Oct_23_1056,trustSTIs,3.0.0b12,59.89167991
M027C,faces/M027C.jpg,4.682963673,Untrustworthy,Ignored a man bleeding on the sidewalk,cold,implicit,congruent,,,,,,,,,,0,15,15,23,,,right,5.5271449,,,,,,,,,4,123,2019_Oct_23_1056,trustSTIs,3.0.0b12,59.89167991
M042C,faces/M042C.jpg,5.596522235,Trustworthy,Heckled a woman speaking on human rights,dependable,mismatch,incongruent,,,,,,,,,,0,16,16,8,,,right,2.304504,,,,,,,,,4,123,2019_Oct_23_1056,trustSTIs,3.0.0b12,59.89167991
M049C,faces/M049C.jpg,6.053175375,Trustworthy,Was supportive and took a friend out for a beer to celebrate his promotion,supportive,explicit,congruent,,,,,,,,,,0,17,17,9,,,left,4.1245912,,,,,,,,,4,123,2019_Oct_23_1056,trustSTIs,3.0.0b12,59.89167991
M071C,faces/M071C.jpg,5.923639075,Trustworthy,Got up early to drive a roommate to the airport,responsible,implicit,congruent,,,,,,,,,,0,18,18,14,,,left,2.5716893,,,,,,,,,4,123,2019_Oct_23_1056,trustSTIs,3.0.0b12,59.89167991
M086C,faces/M086C.jpg,4.845010075,Untrustworthy,Returned a lost wallet,insensitive,mismatch,incongruent,,,,,,,,,,0,19,19,34,,,left,3.3896601,,,,,,,,,4,123,2019_Oct_23_1056,trustSTIs,3.0.0b12,59.89167991
M004C,faces/M004C.jpg,6.470262,Trustworthy,Was greedy and stole money and jewelry from the relatives he was living with,greedy,explicit,incongruent,,,,,,,,,,0,20,20,0,,,left,1.6366264,,,,,,,,,4,123,2019_Oct_23_1056,trustSTIs,3.0.0b12,59.89167991
M033C,faces/M033C.jpg,4.943548355,Untrustworthy,Insulted a stranger by making a racial slur,honest,mismatch,congruent,,,,,,,,,,0,21,21,25,,,left,4.425197,,,,,,,,,4,123,2019_Oct_23_1056,trustSTIs,3.0.0b12,59.89167991
M081C,faces/M081C.jpg,4.350806448,Untrustworthy,Provided food and clothing for flood victims,untrustworthy,mismatch,incongruent,,,,,,,,,,0,22,22,33,,,right,3.0725703,,,,,,,,,4,123,2019_Oct_23_1056,trustSTIs,3.0.0b12,59.89167991
M061C,faces/M061C.jpg,4.652721745,Untrustworthy,Was selfless and volunteered at children's hospital,selfless,explicit,incongruent,,,,,,,,,,0,23,23,27,,,left,1.9705329,,,,,,,,,4,123,2019_Oct_23_1056,trustSTIs,3.0.0b12,59.89167991
M062C,faces/M062C.jpg,5.597530268,Trustworthy,Tutored a struggling classmate for free,generous,implicit,congruent,,,,,,,,,,0,24,24,13,,,left,3.7572115,,,,,,,,,4,123,2019_Oct_23_1056,trustSTIs,3.0.0b12,59.89167991
M021C,faces/M021C.jpg,4.828377083,Untrustworthy,Cheated on their spouse while on a business trip,dishonest,implicit,congruent,,,,,,,,,,0,25,25,22,,,right,1.7200818,,,,,,,,,4,123,2019_Oct_23_1056,trustSTIs,3.0.0b12,59.89167991
M022C,faces/M022C.jpg,5.7741936,Trustworthy,Cursed out a co-worker for their incompetence,demeaning,implicit,incongruent,,,,,,,,,,0,26,26,4,,,left,3.3564474,,,,,,,,,4,123,2019_Oct_23_1056,trustSTIs,3.0.0b12,59.89167991
M051C,faces/M051C.jpg,5.67212695,Trustworthy,Was attentive and kept the music down for their roommates,attentive,explicit,congruent,,,,,,,,,,0,27,27,11,,,left,2.554993,,,,,,,,,4,123,2019_Oct_23_1056,trustSTIs,3.0.0b12,59.89167991
M013C,faces/M013C.jpg,6.035534283,Trustworthy,Was cruel and pushed a lost child out of their way and ignored her cries for help,cruel,explicit,incongruent,,,,,,,,,,0,28,28,2,,,right,2.7219585,,,,,,,,,4,123,2019_Oct_23_1056,trustSTIs,3.0.0b12,59.89167991
M070C,faces/M070C.jpg,4.7144657,Untrustworthy,Saved a person from drowning,heroic,implicit,incongruent,,,,,,,,,,0,29,29,30,,,right,2.4212684,,,,,,,,,4,123,2019_Oct_23_1056,trustSTIs,3.0.0b12,59.89167991
M029C,faces/M029C.jpg,5.814516125,Trustworthy,Told a racist joke at a party,polite,mismatch,incongruent,,,,,,,,,,0,30,30,6,,,left,2.3712811,,,,,,,,,4,123,2019_Oct_23_1056,trustSTIs,3.0.0b12,59.89167991
M006C,faces/M006C.jpg,6.0640122,Trustworthy,Was immoral and attempted to rape a woman who was walking down a dark street,immoral,explicit,incongruent,,,,,,,,,,0,31,31,1,,,right,2.6551842,,,,,,,,,4,123,2019_Oct_23_1056,trustSTIs,3.0.0b12,59.89167991
M077C,faces/M077C.jpg,6.415070475,Trustworthy,Gave up seat on the bus to a pregnant lady,callous,mismatch,congruent,,,,,,,,,,0,32,32,15,,,right,3.6403001,,,,,,,,,4,123,2019_Oct_23_1056,trustSTIs,3.0.0b12,59.89167991
M093C,faces/M093C.jpg,6.071068575,Trustworthy,Visited a sick friend in the hospital,sexist,mismatch,congruent,,,,,,,,,,0,33,33,17,,,right,2.8889667,,,,,,,,,4,123,2019_Oct_23_1056,trustSTIs,3.0.0b12,59.89167991
M058C,faces/M058C.jpg,6.1066028,Trustworthy,Paid a friend back the money they owed within only a few days,reliable,implicit,congruent,,,,,,,,,,0,34,34,12,,,left,1.9538375,,,,,,,,,4,123,2019_Oct_23_1056,trustSTIs,3.0.0b12,59.89167991
M019C,faces/M019C.jpg,3.257056473,Untrustworthy,Was mean and swore at a cab driver and ran away without paying,mean,explicit,congruent,,,,,,,,,,0,35,35,20,,,right,2.6551845,,,,,,,,,4,123,2019_Oct_23_1056,trustSTIs,3.0.0b12,59.89167991
,,,,,,,,,,,,,,,,,,,,,,,,,21,4.191,,,,,,,4,123,2019_Oct_23_1056,trustSTIs,3.0.0b12,59.89167991
,,,,,,,,,,,,,,,,,,,,,,,,,,,right,4.1080259,,,,,4,123,2019_Oct_23_1056,trustSTIs,3.0.0b12,59.89167991
,,,,,,,,,,,,,,,,,,,,,,,,,,,,,left,4.0410513,,,4,123,2019_Oct_23_1056,trustSTIs,3.0.0b12,59.89167991
,,,,,,,,,,,,,,,,,,,,,,,,,,,,,,,a,5.6941362,4,123,2019_Oct_23_1056,trustSTIs,3.0.0b12,59.89167991