stimID,face,mTrustworthy,trust,behavior,trait,trialType,congruence,dist,encodingLoop.thisRepN,encodingLoop.thisTrialN,encodingLoop.thisN,encodingLoop.thisIndex,distLoop.thisRepN,distLoop.thisTrialN,distLoop.thisN,distLoop.thisIndex,recognitionLoop.thisRepN,recognitionLoop.thisTrialN,recognitionLoop.thisN,recognitionLoop.thisIndex,distAnswers.keys,distAnswers.rt,keyResp.keys,keyResp.rt,ageRate.response,ageRate.rt,eflResp.keys,eflResp.rt,genderResp.keys,genderResp.rt,ethResp.keys,ethResp.rt,condition,participant,date,expName,psychopyVersion,frameRate,
M026C,faces/M026C.jpg,5.823084825,Trustworthy,Was giving and paid for a taxi to take an intoxicated man to his residence,giving,explicit,congruent,,0,0,0,5,,,,,,,,,,,,,,,,,,,,,2,151,2019_Oct_24_1232,trustSTIs,3.0.0b12,59.89053207464797,
M050C,faces/M050C.jpg,5.690020225,Trustworthy,Could not remember the birthdays of their family members,caring,mismatch,incongruent,,0,1,1,10,,,,,,,,,,,,,,,,,,,,,2,151,2019_Oct_24_1232,trustSTIs,3.0.0b12,59.89053207464797,
M071C,faces/M071C.jpg,5.923639075,Trustworthy,Stole and used their mother's prescription medication,untrustworthy,implicit,incongruent,,0,2,2,15,,,,,,,,,,,,,,,,,,,,,2,151,2019_Oct_24_1232,trustSTIs,3.0.0b12,59.89053207464797,
M037C,faces/M037C.jpg,4.31502017,Untrustworthy,Held the doors to the subway for an elderly woman with a walker,respectful,implicit,incongruent,,0,3,3,25,,,,,,,,,,,,,,,,,,,,,2,151,2019_Oct_24_1232,trustSTIs,3.0.0b12,59.89053207464797,
M004C,faces/M004C.jpg,6.470262,Trustworthy,Volunteered at children's hospital,careless,mismatch,congruent,,0,4,4,0,,,,,,,,,,,,,,,,,,,,,2,151,2019_Oct_24_1232,trustSTIs,3.0.0b12,59.89053207464797,
M051C,faces/M051C.jpg,5.67212695,Trustworthy,Swore at a cab driver and ran away without paying,trustworthy,mismatch,incongruent,,0,5,5,11,,,,,,,,,,,,,,,,,,,,,2,151,2019_Oct_24_1232,trustSTIs,3.0.0b12,59.89053207464797,
M008C,faces/M008C.jpg,4.033770203,Untrustworthy,Took a friend out for a beer to celebrate his promotion,greedy,mismatch,incongruent,,0,6,6,18,,,,,,,,,,,,,,,,,,,,,2,151,2019_Oct_24_1232,trustSTIs,3.0.0b12,59.89053207464797,
M019C,faces/M019C.jpg,3.257056473,Untrustworthy,Kept the music down for their roommates,cruel,mismatch,incongruent,,0,7,7,20,,,,,,,,,,,,,,,,,,,,,2,151,2019_Oct_24_1232,trustSTIs,3.0.0b12,59.89053207464797,
M014C,faces/M014C.jpg,5.649445575,Trustworthy,Was heroic and saved a person from drowning,heroic,explicit,congruent,,0,8,8,3,,,,,,,,,,,,,,,,,,,,,2,151,2019_Oct_24_1232,trustSTIs,3.0.0b12,59.89053207464797,
M062C,faces/M062C.jpg,5.597530268,Trustworthy,Was dishonest and cheated on their spouse while on a business trip,dishonest,explicit,incongruent,,0,9,9,13,,,,,,,,,,,,,,,,,,,,,2,151,2019_Oct_24_1232,trustSTIs,3.0.0b12,59.89053207464797,
M049C,faces/M049C.jpg,6.053175375,Trustworthy,Drove their car the wrong way down a one-way street,selfless,mismatch,incongruent,,0,10,10,9,,,,,,,,,,,,,,,,,,,,,2,151,2019_Oct_24_1232,trustSTIs,3.0.0b12,59.89053207464797,
M040C,faces/M040C.jpg,4.419858935,Untrustworthy,Visited a sick friend in the hospital,dependable,implicit,incongruent,,0,11,11,26,,,,,,,,,,,,,,,,,,,,,2,151,2019_Oct_24_1232,trustSTIs,3.0.0b12,59.89053207464797,
M076C,faces/M076C.jpg,4.724042295,Untrustworthy,Was thieving and took a ten-dollar bill from their roommate's dresser without asking,thieving,explicit,congruent,,0,12,12,32,,,,,,,,,,,,,,,,,,,,,2,151,2019_Oct_24_1232,trustSTIs,3.0.0b12,59.89053207464797,
M067C,faces/M067C.jpg,4.9541331,Untrustworthy,Pushed a lost child out of their way and ignored her cries for help,attentive,mismatch,congruent,,0,13,13,29,,,,,,,,,,,,,,,,,,,,,2,151,2019_Oct_24_1232,trustSTIs,3.0.0b12,59.89053207464797,
M017C,faces/M017C.jpg,4.724042335,Untrustworthy,Organized a group to renovate some run-down houses,immoral,mismatch,incongruent,,0,14,14,19,,,,,,,,,,,,,,,,,,,,,2,151,2019_Oct_24_1232,trustSTIs,3.0.0b12,59.89053207464797,
M066C,faces/M066C.jpg,4.707409208,Untrustworthy,Attempted to rape a woman who was walking down a dark street,hardworking,mismatch,congruent,,0,15,15,28,,,,,,,,,,,,,,,,,,,,,2,151,2019_Oct_24_1232,trustSTIs,3.0.0b12,59.89053207464797,
M013C,faces/M013C.jpg,6.035534283,Trustworthy,Woke up a woman passed out on the subway and made sure that she got home safely,mean,mismatch,congruent,,0,16,16,2,,,,,,,,,,,,,,,,,,,,,2,151,2019_Oct_24_1232,trustSTIs,3.0.0b12,59.89053207464797,
M081C,faces/M081C.jpg,4.350806448,Untrustworthy,Told a racist joke at a party,callous,implicit,congruent,,0,17,17,33,,,,,,,,,,,,,,,,,,,,,2,151,2019_Oct_24_1232,trustSTIs,3.0.0b12,59.89053207464797,
M072C,faces/M072C.jpg,4.8732359,Untrustworthy,Was demeaning and cursed out a co-worker for their incompetence,demeaning,explicit,congruent,,0,18,18,31,,,,,,,,,,,,,,,,,,,,,2,151,2019_Oct_24_1232,trustSTIs,3.0.0b12,59.89053207464797,
M022C,faces/M022C.jpg,5.7741936,Trustworthy,Was kind and helped a lost child find his parents at a mall,kind,explicit,congruent,,0,19,19,4,,,,,,,,,,,,,,,,,,,,,2,151,2019_Oct_24_1232,trustSTIs,3.0.0b12,59.89053207464797,
M006C,faces/M006C.jpg,6.0640122,Trustworthy,Helped a man in a wheelchair cross a busy intersection,selfish,mismatch,congruent,,0,20,20,1,,,,,,,,,,,,,,,,,,,,,2,151,2019_Oct_24_1232,trustSTIs,3.0.0b12,59.89053207464797,
M020C,faces/M020C.jpg,4.750000023,Untrustworthy,Was reliable and paid a friend back the money they owed within only a few days,reliable,explicit,incongruent,,0,21,21,21,,,,,,,,,,,,,,,,,,,,,2,151,2019_Oct_24_1232,trustSTIs,3.0.0b12,59.89053207464797,
M031C,faces/M031C.jpg,5.921622915,Trustworthy,Returned a lost wallet,honest,implicit,congruent,,0,22,22,7,,,,,,,,,,,,,,,,,,,,,2,151,2019_Oct_24_1232,trustSTIs,3.0.0b12,59.89053207464797,
M077C,faces/M077C.jpg,6.415070475,Trustworthy,Insulted a stranger by making a racial slur,insensitive,implicit,incongruent,,0,23,23,16,,,,,,,,,,,,,,,,,,,,,2,151,2019_Oct_24_1232,trustSTIs,3.0.0b12,59.89053207464797,
M029C,faces/M029C.jpg,5.814516125,Trustworthy,Provided food and clothing for flood victims,warm,implicit,congruent,,0,24,24,6,,,,,,,,,,,,,,,,,,,,,2,151,2019_Oct_24_1232,trustSTIs,3.0.0b12,59.89053207464797,
M086C,faces/M086C.jpg,4.845010075,Untrustworthy,Went out of their way to ignore some new coworkers for several weeks,arrogant,implicit,congruent,,0,25,25,34,,,,,,,,,,,,,,,,,,,,,2,151,2019_Oct_24_1232,trustSTIs,3.0.0b12,59.89053207464797,
M069C,faces/M069C.jpg,5.749747885,Trustworthy,Was cold and ignored a man bleeding on the sidewalk,cold,explicit,incongruent,,0,26,26,14,,,,,,,,,,,,,,,,,,,,,2,151,2019_Oct_24_1232,trustSTIs,3.0.0b12,59.89053207464797,
M070C,faces/M070C.jpg,4.7144657,Untrustworthy,Was unfair and ridiculed people behind their backs,unfair,explicit,congruent,,0,27,27,30,,,,,,,,,,,,,,,,,,,,,2,151,2019_Oct_24_1232,trustSTIs,3.0.0b12,59.89053207464797,
M033C,faces/M033C.jpg,4.943548355,Untrustworthy,Gave up seat on the bus to a pregnant lady,polite,implicit,incongruent,,0,28,28,24,,,,,,,,,,,,,,,,,,,,,2,151,2019_Oct_24_1232,trustSTIs,3.0.0b12,59.89053207464797,
M092C,faces/M092C.jpg,4.779737903,Untrustworthy,Heckled a woman speaking on human rights,sexist,implicit,congruent,,0,29,29,35,,,,,,,,,,,,,,,,,,,,,2,151,2019_Oct_24_1232,trustSTIs,3.0.0b12,59.89053207464797,
M021C,faces/M021C.jpg,4.828377083,Untrustworthy,Was generous and tutored a struggling classmate for free,generous,explicit,incongruent,,0,30,30,22,,,,,,,,,,,,,,,,,,,,,2,151,2019_Oct_24_1232,trustSTIs,3.0.0b12,59.89053207464797,
M087C,faces/M087C.jpg,6.061491925,Trustworthy,Hit a car and left the scene of the accident,cowardly,implicit,incongruent,,0,31,31,17,,,,,,,,,,,,,,,,,,,,,2,151,2019_Oct_24_1232,trustSTIs,3.0.0b12,59.89053207464797,
M061C,faces/M061C.jpg,4.652721745,Untrustworthy,Stole money and jewelry from the relatives he was living with,supportive,mismatch,congruent,,0,32,32,27,,,,,,,,,,,,,,,,,,,,,2,151,2019_Oct_24_1232,trustSTIs,3.0.0b12,59.89053207464797,
M042C,faces/M042C.jpg,5.596522235,Trustworthy,Took care of their parent during an illness,compassionate,implicit,congruent,,0,33,33,8,,,,,,,,,,,,,,,,,,,,,2,151,2019_Oct_24_1232,trustSTIs,3.0.0b12,59.89053207464797,
M032C,faces/M032C.jpg,4.74092746,Untrustworthy,Was responsible and got up early to drive a roommate to the airport,responsible,explicit,incongruent,,0,34,34,23,,,,,,,,,,,,,,,,,,,,,2,151,2019_Oct_24_1232,trustSTIs,3.0.0b12,59.89053207464797,
M058C,faces/M058C.jpg,6.1066028,Trustworthy,Was vain and was very concerned about their personal appearance,vain,explicit,incongruent,,0,35,35,12,,,,,,,,,,,,,,,,,,,,,2,151,2019_Oct_24_1232,trustSTIs,3.0.0b12,59.89053207464797,
,,,,,,,,6 * 9 = ?,,,,,0,0,0,2,,,,,['space'],[17.465795799857005],,,,,,,,,,,2,151,2019_Oct_24_1232,trustSTIs,3.0.0b12,59.89053207464797,
,,,,,,,,3² = ?,,,,,0,1,1,0,,,,,['space'],[2.7217729999683797],,,,,,,,,,,2,151,2019_Oct_24_1232,trustSTIs,3.0.0b12,59.89053207464797,
,,,,,,,,169 ÷ 13 = ?,,,,,0,2,2,8,,,,,['space'],[6.412153500132263],,,,,,,,,,,2,151,2019_Oct_24_1232,trustSTIs,3.0.0b12,59.89053207464797,
,,,,,,,,(5 x 4) - 12 = ?,,,,,0,3,3,9,,,,,['space'],[4.241103200009093],,,,,,,,,,,2,151,2019_Oct_24_1232,trustSTIs,3.0.0b12,59.89053207464797,
,,,,,,,,(5 + 7) ÷ 4 = ?,,,,,0,4,4,1,,,,,['space'],[4.091256600106135],,,,,,,,,,,2,151,2019_Oct_24_1232,trustSTIs,3.0.0b12,59.89053207464797,
,,,,,,,,54 ÷ 9 = ?,,,,,0,5,5,4,,,,,['space'],[3.406252000015229],,,,,,,,,,,2,151,2019_Oct_24_1232,trustSTIs,3.0.0b12,59.89053207464797,
,,,,,,,,√100 = ?,,,,,0,6,6,3,,,,,['space'],[2.2545559001155198],,,,,,,,,,,2,151,2019_Oct_24_1232,trustSTIs,3.0.0b12,59.89053207464797,
,,,,,,,,(24 ÷ 3) x 5 = ?,,,,,0,7,7,5,,,,,['space'],[10.285724299959838],,,,,,,,,,,2,151,2019_Oct_24_1232,trustSTIs,3.0.0b12,59.89053207464797,
,,,,,,,,7³ = ?,,,,,0,8,8,7,,,,,['space'],[11.638203399954364],,,,,,,,,,,2,151,2019_Oct_24_1232,trustSTIs,3.0.0b12,59.89053207464797,
,,,,,,,,√49 x 7 = ?,,,,,0,9,9,6,,,,,['space'],[4.608496200060472],,,,,,,,,,,2,151,2019_Oct_24_1232,trustSTIs,3.0.0b12,59.89053207464797,
M021C,faces/M021C.jpg,4.828377083,Untrustworthy,Was generous and tutored a struggling classmate for free,generous,explicit,incongruent,,,,,,,,,,0,0,0,22,,,left,3.974190799985081,,,,,,,,,2,151,2019_Oct_24_1232,trustSTIs,3.0.0b12,59.89053207464797,
M066C,faces/M066C.jpg,4.707409208,Untrustworthy,Attempted to rape a woman who was walking down a dark street,hardworking,mismatch,congruent,,,,,,,,,,0,1,1,28,,,right,1.8870242999400944,,,,,,,,,2,151,2019_Oct_24_1232,trustSTIs,3.0.0b12,59.89053207464797,
M042C,faces/M042C.jpg,5.596522235,Trustworthy,Took care of their parent during an illness,compassionate,implicit,congruent,,,,,,,,,,0,2,2,8,,,right,3.3731397001538426,,,,,,,,,2,151,2019_Oct_24_1232,trustSTIs,3.0.0b12,59.89053207464797,
M050C,faces/M050C.jpg,5.690020225,Trustworthy,Could not remember the birthdays of their family members,caring,mismatch,incongruent,,,,,,,,,,0,3,3,10,,,right,2.1375104999169707,,,,,,,,,2,151,2019_Oct_24_1232,trustSTIs,3.0.0b12,59.89053207464797,
M087C,faces/M087C.jpg,6.061491925,Trustworthy,Hit a car and left the scene of the accident,cowardly,implicit,incongruent,,,,,,,,,,0,4,4,17,,,right,1.7200442000757903,,,,,,,,,2,151,2019_Oct_24_1232,trustSTIs,3.0.0b12,59.89053207464797,
M067C,faces/M067C.jpg,4.9541331,Untrustworthy,Pushed a lost child out of their way and ignored her cries for help,attentive,mismatch,congruent,,,,,,,,,,0,5,5,29,,,right,1.1022659000009298,,,,,,,,,2,151,2019_Oct_24_1232,trustSTIs,3.0.0b12,59.89053207464797,
M058C,faces/M058C.jpg,6.1066028,Trustworthy,Was vain and was very concerned about their personal appearance,vain,explicit,incongruent,,,,,,,,,,0,6,6,12,,,left,1.1859406000003219,,,,,,,,,2,151,2019_Oct_24_1232,trustSTIs,3.0.0b12,59.89053207464797,
M031C,faces/M031C.jpg,5.921622915,Trustworthy,Returned a lost wallet,honest,implicit,congruent,,,,,,,,,,0,7,7,7,,,left,2.9556518997997046,,,,,,,,,2,151,2019_Oct_24_1232,trustSTIs,3.0.0b12,59.89053207464797,
M049C,faces/M049C.jpg,6.053175375,Trustworthy,Drove their car the wrong way down a one-way street,selfless,mismatch,incongruent,,,,,,,,,,0,8,8,9,,,right,1.4361986999865621,,,,,,,,,2,151,2019_Oct_24_1232,trustSTIs,3.0.0b12,59.89053207464797,
M022C,faces/M022C.jpg,5.7741936,Trustworthy,Was kind and helped a lost child find his parents at a mall,kind,explicit,congruent,,,,,,,,,,0,9,9,4,,,left,1.369248399976641,,,,,,,,,2,151,2019_Oct_24_1232,trustSTIs,3.0.0b12,59.89053207464797,
M014C,faces/M014C.jpg,5.649445575,Trustworthy,Was heroic and saved a person from drowning,heroic,explicit,congruent,,,,,,,,,,0,10,10,3,,,right,1.2358217998407781,,,,,,,,,2,151,2019_Oct_24_1232,trustSTIs,3.0.0b12,59.89053207464797,
M029C,faces/M029C.jpg,5.814516125,Trustworthy,Provided food and clothing for flood victims,warm,implicit,congruent,,,,,,,,,,0,11,11,6,,,right,1.6198384000454098,,,,,,,,,2,151,2019_Oct_24_1232,trustSTIs,3.0.0b12,59.89053207464797,
M062C,faces/M062C.jpg,5.597530268,Trustworthy,Was dishonest and cheated on their spouse while on a business trip,dishonest,explicit,incongruent,,,,,,,,,,0,12,12,13,,,right,3.0056962999515235,,,,,,,,,2,151,2019_Oct_24_1232,trustSTIs,3.0.0b12,59.89053207464797,
M017C,faces/M017C.jpg,4.724042335,Untrustworthy,Organized a group to renovate some run-down houses,immoral,mismatch,incongruent,,,,,,,,,,0,13,13,19,,,left,6.528817199869081,,,,,,,,,2,151,2019_Oct_24_1232,trustSTIs,3.0.0b12,59.89053207464797,
M076C,faces/M076C.jpg,4.724042295,Untrustworthy,Was thieving and took a ten-dollar bill from their roommate's dresser without asking,thieving,explicit,congruent,,,,,,,,,,0,14,14,32,,,left,2.421295400010422,,,,,,,,,2,151,2019_Oct_24_1232,trustSTIs,3.0.0b12,59.89053207464797,
M081C,faces/M081C.jpg,4.350806448,Untrustworthy,Told a racist joke at a party,callous,implicit,congruent,,,,,,,,,,0,15,15,33,,,right,1.3193075000308454,,,,,,,,,2,151,2019_Oct_24_1232,trustSTIs,3.0.0b12,59.89053207464797,
M051C,faces/M051C.jpg,5.67212695,Trustworthy,Swore at a cab driver and ran away without paying,trustworthy,mismatch,incongruent,,,,,,,,,,0,16,16,11,,,right,2.237633900018409,,,,,,,,,2,151,2019_Oct_24_1232,trustSTIs,3.0.0b12,59.89053207464797,
M040C,faces/M040C.jpg,4.419858935,Untrustworthy,Visited a sick friend in the hospital,dependable,implicit,incongruent,,,,,,,,,,0,17,17,26,,,right,3.322908600093797,,,,,,,,,2,151,2019_Oct_24_1232,trustSTIs,3.0.0b12,59.89053207464797,
M037C,faces/M037C.jpg,4.31502017,Untrustworthy,Held the doors to the subway for an elderly woman with a walker,respectful,implicit,incongruent,,,,,,,,,,0,18,18,25,,,right,2.170660100178793,,,,,,,,,2,151,2019_Oct_24_1232,trustSTIs,3.0.0b12,59.89053207464797,
M086C,faces/M086C.jpg,4.845010075,Untrustworthy,Went out of their way to ignore some new coworkers for several weeks,arrogant,implicit,congruent,,,,,,,,,,0,19,19,34,,,right,0.9519541999325156,,,,,,,,,2,151,2019_Oct_24_1232,trustSTIs,3.0.0b12,59.89053207464797,
M019C,faces/M019C.jpg,3.257056473,Untrustworthy,Kept the music down for their roommates,cruel,mismatch,incongruent,,,,,,,,,,0,20,20,20,,,right,1.152316200081259,,,,,,,,,2,151,2019_Oct_24_1232,trustSTIs,3.0.0b12,59.89053207464797,
M072C,faces/M072C.jpg,4.8732359,Untrustworthy,Was demeaning and cursed out a co-worker for their incompetence,demeaning,explicit,congruent,,,,,,,,,,0,21,21,31,,,left,1.68696069996804,,,,,,,,,2,151,2019_Oct_24_1232,trustSTIs,3.0.0b12,59.89053207464797,
M026C,faces/M026C.jpg,5.823084825,Trustworthy,Was giving and paid for a taxi to take an intoxicated man to his residence,giving,explicit,congruent,,,,,,,,,,0,22,22,5,,,right,1.1523288001772016,,,,,,,,,2,151,2019_Oct_24_1232,trustSTIs,3.0.0b12,59.89053207464797,
M033C,faces/M033C.jpg,4.943548355,Untrustworthy,Gave up seat on the bus to a pregnant lady,polite,implicit,incongruent,,,,,,,,,,0,23,23,24,,,right,2.6550212998408824,,,,,,,,,2,151,2019_Oct_24_1232,trustSTIs,3.0.0b12,59.89053207464797,
M069C,faces/M069C.jpg,5.749747885,Trustworthy,Was cold and ignored a man bleeding on the sidewalk,cold,explicit,incongruent,,,,,,,,,,0,24,24,14,,,left,1.26920250011608,,,,,,,,,2,151,2019_Oct_24_1232,trustSTIs,3.0.0b12,59.89053207464797,
M032C,faces/M032C.jpg,4.74092746,Untrustworthy,Was responsible and got up early to drive a roommate to the airport,responsible,explicit,incongruent,,,,,,,,,,0,25,25,23,,,right,4.792288700118661,,,,,,,,,2,151,2019_Oct_24_1232,trustSTIs,3.0.0b12,59.89053207464797,
M013C,faces/M013C.jpg,6.035534283,Trustworthy,Woke up a woman passed out on the subway and made sure that she got home safely,mean,mismatch,congruent,,,,,,,,,,0,26,26,2,,,right,1.085547599941492,,,,,,,,,2,151,2019_Oct_24_1232,trustSTIs,3.0.0b12,59.89053207464797,
M061C,faces/M061C.jpg,4.652721745,Untrustworthy,Stole money and jewelry from the relatives he was living with,supportive,mismatch,congruent,,,,,,,,,,0,27,27,27,,,right,1.2190888999029994,,,,,,,,,2,151,2019_Oct_24_1232,trustSTIs,3.0.0b12,59.89053207464797,
M070C,faces/M070C.jpg,4.7144657,Untrustworthy,Was unfair and ridiculed people behind their backs,unfair,explicit,congruent,,,,,,,,,,0,28,28,30,,,right,4.090956599917263,,,,,,,,,2,151,2019_Oct_24_1232,trustSTIs,3.0.0b12,59.89053207464797,
M008C,faces/M008C.jpg,4.033770203,Untrustworthy,Took a friend out for a beer to celebrate his promotion,greedy,mismatch,incongruent,,,,,,,,,,0,29,29,18,,,right,1.3192984000779688,,,,,,,,,2,151,2019_Oct_24_1232,trustSTIs,3.0.0b12,59.89053207464797,
M077C,faces/M077C.jpg,6.415070475,Trustworthy,Insulted a stranger by making a racial slur,insensitive,implicit,incongruent,,,,,,,,,,0,30,30,16,,,right,3.707242199918255,,,,,,,,,2,151,2019_Oct_24_1232,trustSTIs,3.0.0b12,59.89053207464797,
M004C,faces/M004C.jpg,6.470262,Trustworthy,Volunteered at children's hospital,careless,mismatch,congruent,,,,,,,,,,0,31,31,0,,,right,1.3526454998645931,,,,,,,,,2,151,2019_Oct_24_1232,trustSTIs,3.0.0b12,59.89053207464797,
M071C,faces/M071C.jpg,5.923639075,Trustworthy,Stole and used their mother's prescription medication,untrustworthy,implicit,incongruent,,,,,,,,,,0,32,32,15,,,right,1.2690327998716384,,,,,,,,,2,151,2019_Oct_24_1232,trustSTIs,3.0.0b12,59.89053207464797,
M020C,faces/M020C.jpg,4.750000023,Untrustworthy,Was reliable and paid a friend back the money they owed within only a few days,reliable,explicit,incongruent,,,,,,,,,,0,33,33,21,,,right,2.2376405999530107,,,,,,,,,2,151,2019_Oct_24_1232,trustSTIs,3.0.0b12,59.89053207464797,
M006C,faces/M006C.jpg,6.0640122,Trustworthy,Helped a man in a wheelchair cross a busy intersection,selfish,mismatch,congruent,,,,,,,,,,0,34,34,1,,,right,2.1708478999789804,,,,,,,,,2,151,2019_Oct_24_1232,trustSTIs,3.0.0b12,59.89053207464797,
M092C,faces/M092C.jpg,4.779737903,Untrustworthy,Heckled a woman speaking on human rights,sexist,implicit,congruent,,,,,,,,,,0,35,35,35,,,right,1.1189707999583334,,,,,,,,,2,151,2019_Oct_24_1232,trustSTIs,3.0.0b12,59.89053207464797,
,,,,,,,,,,,,,,,,,,,,,,,,,18,5.694,,,,,,,2,151,2019_Oct_24_1232,trustSTIs,3.0.0b12,59.89053207464797,
,,,,,,,,,,,,,,,,,,,,,,,,,,,right,9.968226899858564,,,,,2,151,2019_Oct_24_1232,trustSTIs,3.0.0b12,59.89053207464797,
,,,,,,,,,,,,,,,,,,,,,,,,,,,,,left,3.590076999971643,,,2,151,2019_Oct_24_1232,trustSTIs,3.0.0b12,59.89053207464797,
,,,,,,,,,,,,,,,,,,,,,,,,,,,,,,,a,3.907447899924591,2,151,2019_Oct_24_1232,trustSTIs,3.0.0b12,59.89053207464797,
