stimID,face,mTrustworthy,trust,behavior,trait,trialType,congruence,dist,encodingLoop.thisRepN,encodingLoop.thisTrialN,encodingLoop.thisN,encodingLoop.thisIndex,distLoop.thisRepN,distLoop.thisTrialN,distLoop.thisN,distLoop.thisIndex,recognitionLoop.thisRepN,recognitionLoop.thisTrialN,recognitionLoop.thisN,recognitionLoop.thisIndex,distAnswers.keys,distAnswers.rt,keyResp.keys,keyResp.rt,ageRate.response,ageRate.rt,eflResp.keys,eflResp.rt,genderResp.keys,genderResp.rt,ethResp.keys,ethResp.rt,condition,participant,date,expName,psychopyVersion,frameRate
M049C,faces/M049C.jpg,6.053175375,Trustworthy,Was supportive and took a friend out for a beer to celebrate his promotion,supportive,explicit,congruent,,0,0,0,9,,,,,,,,,,,,,,,,,,,,,4,153,2019_Oct_24_1256,trustSTIs,3.0.0b12,59.89063969
M014C,faces/M014C.jpg,5.649445575,Trustworthy,Ridiculed people behind their backs,unfair,implicit,incongruent,,0,1,1,3,,,,,,,,,,,,,,,,,,,,,4,153,2019_Oct_24_1256,trustSTIs,3.0.0b12,59.89063969
M062C,faces/M062C.jpg,5.597530268,Trustworthy,Tutored a struggling classmate for free,generous,implicit,congruent,,0,2,2,13,,,,,,,,,,,,,,,,,,,,,4,153,2019_Oct_24_1256,trustSTIs,3.0.0b12,59.89063969
M031C,faces/M031C.jpg,5.921622915,Trustworthy,Went out of their way to ignore some new coworkers for several weeks,respectful,mismatch,incongruent,,0,3,3,7,,,,,,,,,,,,,,,,,,,,,4,153,2019_Oct_24_1256,trustSTIs,3.0.0b12,59.89063969
M092C,faces/M092C.jpg,4.779737903,Untrustworthy,Took care of their parent during an illness,cowardly,mismatch,incongruent,,0,4,4,35,,,,,,,,,,,,,,,,,,,,,4,153,2019_Oct_24_1256,trustSTIs,3.0.0b12,59.89063969
M087C,faces/M087C.jpg,6.061491925,Trustworthy,Held the doors to the subway for an elderly woman with a walker,arrogant,mismatch,congruent,,0,5,5,16,,,,,,,,,,,,,,,,,,,,,4,153,2019_Oct_24_1256,trustSTIs,3.0.0b12,59.89063969
M066C,faces/M066C.jpg,4.707409208,Untrustworthy,Was caring and helped a man in a wheelchair cross a busy intersection,caring,explicit,incongruent,,0,6,6,28,,,,,,,,,,,,,,,,,,,,,4,153,2019_Oct_24_1256,trustSTIs,3.0.0b12,59.89063969
M004C,faces/M004C.jpg,6.470262,Trustworthy,Was greedy and stole money and jewelry from the relatives he was living with,greedy,explicit,incongruent,,0,7,7,0,,,,,,,,,,,,,,,,,,,,,4,153,2019_Oct_24_1256,trustSTIs,3.0.0b12,59.89063969
M017C,faces/M017C.jpg,4.724042335,Untrustworthy,Was selfish and could not remember the birthdays of their family members,selfish,explicit,congruent,,0,8,8,19,,,,,,,,,,,,,,,,,,,,,4,153,2019_Oct_24_1256,trustSTIs,3.0.0b12,59.89063969
M070C,faces/M070C.jpg,4.7144657,Untrustworthy,Saved a person from drowning,heroic,implicit,incongruent,,0,9,9,30,,,,,,,,,,,,,,,,,,,,,4,153,2019_Oct_24_1256,trustSTIs,3.0.0b12,59.89063969
M050C,faces/M050C.jpg,5.690020225,Trustworthy,Was hardworking and organized a group to renovate some run-down houses,hardworking,explicit,congruent,,0,10,10,10,,,,,,,,,,,,,,,,,,,,,4,153,2019_Oct_24_1256,trustSTIs,3.0.0b12,59.89063969
M042C,faces/M042C.jpg,5.596522235,Trustworthy,Heckled a woman speaking on human rights,dependable,mismatch,incongruent,,0,11,11,8,,,,,,,,,,,,,,,,,,,,,4,153,2019_Oct_24_1256,trustSTIs,3.0.0b12,59.89063969
M029C,faces/M029C.jpg,5.814516125,Trustworthy,Told a racist joke at a party,polite,mismatch,incongruent,,0,12,12,6,,,,,,,,,,,,,,,,,,,,,4,153,2019_Oct_24_1256,trustSTIs,3.0.0b12,59.89063969
M021C,faces/M021C.jpg,4.828377083,Untrustworthy,Cheated on their spouse while on a business trip,dishonest,implicit,congruent,,0,13,13,22,,,,,,,,,,,,,,,,,,,,,4,153,2019_Oct_24_1256,trustSTIs,3.0.0b12,59.89063969
M058C,faces/M058C.jpg,6.1066028,Trustworthy,Paid a friend back the money they owed within only a few days,reliable,implicit,congruent,,0,14,14,12,,,,,,,,,,,,,,,,,,,,,4,153,2019_Oct_24_1256,trustSTIs,3.0.0b12,59.89063969
M072C,faces/M072C.jpg,4.8732359,Untrustworthy,Helped a lost child find his parents at a mall,kind,implicit,incongruent,,0,15,15,31,,,,,,,,,,,,,,,,,,,,,4,153,2019_Oct_24_1256,trustSTIs,3.0.0b12,59.89063969
M081C,faces/M081C.jpg,4.350806448,Untrustworthy,Provided food and clothing for flood victims,untrustworthy,mismatch,incongruent,,0,16,16,33,,,,,,,,,,,,,,,,,,,,,4,153,2019_Oct_24_1256,trustSTIs,3.0.0b12,59.89063969
M093C,faces/M093C.jpg,6.071068575,Trustworthy,Visited a sick friend in the hospital,sexist,mismatch,congruent,,0,17,17,17,,,,,,,,,,,,,,,,,,,,,4,153,2019_Oct_24_1256,trustSTIs,3.0.0b12,59.89063969
M022C,faces/M022C.jpg,5.7741936,Trustworthy,Cursed out a co-worker for their incompetence,demeaning,implicit,incongruent,,0,18,18,4,,,,,,,,,,,,,,,,,,,,,4,153,2019_Oct_24_1256,trustSTIs,3.0.0b12,59.89063969
M020C,faces/M020C.jpg,4.750000023,Untrustworthy,Was very concerned about their personal appearance,vain,implicit,congruent,,0,19,19,21,,,,,,,,,,,,,,,,,,,,,4,153,2019_Oct_24_1256,trustSTIs,3.0.0b12,59.89063969
M067C,faces/M067C.jpg,4.9541331,Untrustworthy,Was trustworthy and woke up a woman passed out on the subway and made sure that she got home safely,trustworthy,explicit,incongruent,,0,20,20,29,,,,,,,,,,,,,,,,,,,,,4,153,2019_Oct_24_1256,trustSTIs,3.0.0b12,59.89063969
M037C,faces/M037C.jpg,4.31502017,Untrustworthy,Hit a car and left the scene of the accident,compassionate,mismatch,congruent,,0,21,21,26,,,,,,,,,,,,,,,,,,,,,4,153,2019_Oct_24_1256,trustSTIs,3.0.0b12,59.89063969
M076C,faces/M076C.jpg,4.724042295,Untrustworthy,Paid for a taxi to take an intoxicated man to his residence,giving,implicit,incongruent,,0,22,22,32,,,,,,,,,,,,,,,,,,,,,4,153,2019_Oct_24_1256,trustSTIs,3.0.0b12,59.89063969
M027C,faces/M027C.jpg,4.682963673,Untrustworthy,Ignored a man bleeding on the sidewalk,cold,implicit,congruent,,0,23,23,23,,,,,,,,,,,,,,,,,,,,,4,153,2019_Oct_24_1256,trustSTIs,3.0.0b12,59.89063969
M033C,faces/M033C.jpg,4.943548355,Untrustworthy,Insulted a stranger by making a racial slur,honest,mismatch,congruent,,0,24,24,25,,,,,,,,,,,,,,,,,,,,,4,153,2019_Oct_24_1256,trustSTIs,3.0.0b12,59.89063969
M086C,faces/M086C.jpg,4.845010075,Untrustworthy,Returned a lost wallet,insensitive,mismatch,incongruent,,0,25,25,34,,,,,,,,,,,,,,,,,,,,,4,153,2019_Oct_24_1256,trustSTIs,3.0.0b12,59.89063969
M051C,faces/M051C.jpg,5.67212695,Trustworthy,Was attentive and kept the music down for their roommates,attentive,explicit,congruent,,0,26,26,11,,,,,,,,,,,,,,,,,,,,,4,153,2019_Oct_24_1256,trustSTIs,3.0.0b12,59.89063969
M071C,faces/M071C.jpg,5.923639075,Trustworthy,Got up early to drive a roommate to the airport,responsible,implicit,congruent,,0,27,27,14,,,,,,,,,,,,,,,,,,,,,4,153,2019_Oct_24_1256,trustSTIs,3.0.0b12,59.89063969
M032C,faces/M032C.jpg,4.74092746,Untrustworthy,Stole and used their mother's prescription medication,warm,mismatch,congruent,,0,28,28,24,,,,,,,,,,,,,,,,,,,,,4,153,2019_Oct_24_1256,trustSTIs,3.0.0b12,59.89063969
M061C,faces/M061C.jpg,4.652721745,Untrustworthy,Was selfless and volunteered at children's hospital,selfless,explicit,incongruent,,0,29,29,27,,,,,,,,,,,,,,,,,,,,,4,153,2019_Oct_24_1256,trustSTIs,3.0.0b12,59.89063969
M026C,faces/M026C.jpg,5.823084825,Trustworthy,Took a ten-dollar bill from their roommate's dresser without asking,thieving,implicit,incongruent,,0,30,30,5,,,,,,,,,,,,,,,,,,,,,4,153,2019_Oct_24_1256,trustSTIs,3.0.0b12,59.89063969
M077C,faces/M077C.jpg,6.415070475,Trustworthy,Gave up seat on the bus to a pregnant lady,callous,mismatch,congruent,,0,31,31,15,,,,,,,,,,,,,,,,,,,,,4,153,2019_Oct_24_1256,trustSTIs,3.0.0b12,59.89063969
M006C,faces/M006C.jpg,6.0640122,Trustworthy,Was immoral and attempted to rape a woman who was walking down a dark street,immoral,explicit,incongruent,,0,32,32,1,,,,,,,,,,,,,,,,,,,,,4,153,2019_Oct_24_1256,trustSTIs,3.0.0b12,59.89063969
M019C,faces/M019C.jpg,3.257056473,Untrustworthy,Was mean and swore at a cab driver and ran away without paying,mean,explicit,congruent,,0,33,33,20,,,,,,,,,,,,,,,,,,,,,4,153,2019_Oct_24_1256,trustSTIs,3.0.0b12,59.89063969
M008C,faces/M008C.jpg,4.033770203,Untrustworthy,Was careless and drove their car the wrong way down a one-way street,careless,explicit,congruent,,0,34,34,18,,,,,,,,,,,,,,,,,,,,,4,153,2019_Oct_24_1256,trustSTIs,3.0.0b12,59.89063969
M013C,faces/M013C.jpg,6.035534283,Trustworthy,Was cruel and pushed a lost child out of their way and ignored her cries for help,cruel,explicit,incongruent,,0,35,35,2,,,,,,,,,,,,,,,,,,,,,4,153,2019_Oct_24_1256,trustSTIs,3.0.0b12,59.89063969
,,,,,,,,√49 x 7 = ?,,,,,0,0,0,6,,,,,['space'],[13.709067699994193],,,,,,,,,,,4,153,2019_Oct_24_1256,trustSTIs,3.0.0b12,59.89063969
,,,,,,,,(5 x 4) - 12 = ?,,,,,0,1,1,9,,,,,['space'],[3.439759100001538],,,,,,,,,,,4,153,2019_Oct_24_1256,trustSTIs,3.0.0b12,59.89063969
,,,,,,,,3² = ?,,,,,0,2,2,0,,,,,['space'],[1.803582299995469],,,,,,,,,,,4,153,2019_Oct_24_1256,trustSTIs,3.0.0b12,59.89063969
,,,,,,,,6 * 9 = ?,,,,,0,3,3,2,,,,,['space'],[2.488371699990239],,,,,,,,,,,4,153,2019_Oct_24_1256,trustSTIs,3.0.0b12,59.89063969
,,,,,,,,169 ÷ 13 = ?,,,,,0,4,4,8,,,,,['space'],[4.792220799979987],,,,,,,,,,,4,153,2019_Oct_24_1256,trustSTIs,3.0.0b12,59.89063969
,,,,,,,,√100 = ?,,,,,0,5,5,3,,,,,['space'],[2.3714592999895103],,,,,,,,,,,4,153,2019_Oct_24_1256,trustSTIs,3.0.0b12,59.89063969
,,,,,,,,54 ÷ 9 = ?,,,,,0,6,6,4,,,,,['space'],[2.204105699987849],,,,,,,,,,,4,153,2019_Oct_24_1256,trustSTIs,3.0.0b12,59.89063969
,,,,,,,,(24 ÷ 3) x 5 = ?,,,,,0,7,7,5,,,,,['space'],[4.34183399999165],,,,,,,,,,,4,153,2019_Oct_24_1256,trustSTIs,3.0.0b12,59.89063969
,,,,,,,,7³ = ?,,,,,0,8,8,7,,,,,['space'],[6.412093700026162],,,,,,,,,,,4,153,2019_Oct_24_1256,trustSTIs,3.0.0b12,59.89063969
,,,,,,,,(5 + 7) ÷ 4 = ?,,,,,0,9,9,1,,,,,['space'],[4.7087523000082],,,,,,,,,,,4,153,2019_Oct_24_1256,trustSTIs,3.0.0b12,59.89063969
M093C,faces/M093C.jpg,6.071068575,Trustworthy,Visited a sick friend in the hospital,sexist,mismatch,congruent,,,,,,,,,,0,0,0,17,,,right,7.3972056,,,,,,,,,4,153,2019_Oct_24_1256,trustSTIs,3.0.0b12,59.89063969
M062C,faces/M062C.jpg,5.597530268,Trustworthy,Tutored a struggling classmate for free,generous,implicit,congruent,,,,,,,,,,0,1,1,13,,,left,5.4770324,,,,,,,,,4,153,2019_Oct_24_1256,trustSTIs,3.0.0b12,59.89063969
M070C,faces/M070C.jpg,4.7144657,Untrustworthy,Saved a person from drowning,heroic,implicit,incongruent,,,,,,,,,,0,2,2,30,,,left,6.2284047,,,,,,,,,4,153,2019_Oct_24_1256,trustSTIs,3.0.0b12,59.89063969
M076C,faces/M076C.jpg,4.724042295,Untrustworthy,Paid for a taxi to take an intoxicated man to his residence,giving,implicit,incongruent,,,,,,,,,,0,3,3,32,,,right,16.6977472,,,,,,,,,4,153,2019_Oct_24_1256,trustSTIs,3.0.0b12,59.89063969
M087C,faces/M087C.jpg,6.061491925,Trustworthy,Held the doors to the subway for an elderly woman with a walker,arrogant,mismatch,congruent,,,,,,,,,,0,4,4,16,,,left,4.2080179,,,,,,,,,4,153,2019_Oct_24_1256,trustSTIs,3.0.0b12,59.89063969
M058C,faces/M058C.jpg,6.1066028,Trustworthy,Paid a friend back the money they owed within only a few days,reliable,implicit,congruent,,,,,,,,,,0,5,5,12,,,left,1.9035753,,,,,,,,,4,153,2019_Oct_24_1256,trustSTIs,3.0.0b12,59.89063969
M021C,faces/M021C.jpg,4.828377083,Untrustworthy,Cheated on their spouse while on a business trip,dishonest,implicit,congruent,,,,,,,,,,0,6,6,22,,,left,3.1394528,,,,,,,,,4,153,2019_Oct_24_1256,trustSTIs,3.0.0b12,59.89063969
M017C,faces/M017C.jpg,4.724042335,Untrustworthy,Was selfish and could not remember the birthdays of their family members,selfish,explicit,congruent,,,,,,,,,,0,7,7,19,,,right,1.6034451,,,,,,,,,4,153,2019_Oct_24_1256,trustSTIs,3.0.0b12,59.89063969
M066C,faces/M066C.jpg,4.707409208,Untrustworthy,Was caring and helped a man in a wheelchair cross a busy intersection,caring,explicit,incongruent,,,,,,,,,,0,8,8,28,,,left,4.7089294,,,,,,,,,4,153,2019_Oct_24_1256,trustSTIs,3.0.0b12,59.89063969
M077C,faces/M077C.jpg,6.415070475,Trustworthy,Gave up seat on the bus to a pregnant lady,callous,mismatch,congruent,,,,,,,,,,0,9,9,15,,,right,4.5086652,,,,,,,,,4,153,2019_Oct_24_1256,trustSTIs,3.0.0b12,59.89063969
M006C,faces/M006C.jpg,6.0640122,Trustworthy,Was immoral and attempted to rape a woman who was walking down a dark street,immoral,explicit,incongruent,,,,,,,,,,0,10,10,1,,,right,4.391683,,,,,,,,,4,153,2019_Oct_24_1256,trustSTIs,3.0.0b12,59.89063969
M031C,faces/M031C.jpg,5.921622915,Trustworthy,Went out of their way to ignore some new coworkers for several weeks,respectful,mismatch,incongruent,,,,,,,,,,0,11,11,7,,,left,2.4219996,,,,,,,,,4,153,2019_Oct_24_1256,trustSTIs,3.0.0b12,59.89063969
M033C,faces/M033C.jpg,4.943548355,Untrustworthy,Insulted a stranger by making a racial slur,honest,mismatch,congruent,,,,,,,,,,0,12,12,25,,,right,2.2043992,,,,,,,,,4,153,2019_Oct_24_1256,trustSTIs,3.0.0b12,59.89063969
M061C,faces/M061C.jpg,4.652721745,Untrustworthy,Was selfless and volunteered at children's hospital,selfless,explicit,incongruent,,,,,,,,,,0,13,13,27,,,left,1.9205129,,,,,,,,,4,153,2019_Oct_24_1256,trustSTIs,3.0.0b12,59.89063969
M027C,faces/M027C.jpg,4.682963673,Untrustworthy,Ignored a man bleeding on the sidewalk,cold,implicit,congruent,,,,,,,,,,0,14,14,23,,,left,3.3063382,,,,,,,,,4,153,2019_Oct_24_1256,trustSTIs,3.0.0b12,59.89063969
M029C,faces/M029C.jpg,5.814516125,Trustworthy,Told a racist joke at a party,polite,mismatch,incongruent,,,,,,,,,,0,15,15,6,,,right,17.5827387,,,,,,,,,4,153,2019_Oct_24_1256,trustSTIs,3.0.0b12,59.89063969
M049C,faces/M049C.jpg,6.053175375,Trustworthy,Was supportive and took a friend out for a beer to celebrate his promotion,supportive,explicit,congruent,,,,,,,,,,0,16,16,9,,,right,2.7720368,,,,,,,,,4,153,2019_Oct_24_1256,trustSTIs,3.0.0b12,59.89063969
M071C,faces/M071C.jpg,5.923639075,Trustworthy,Got up early to drive a roommate to the airport,responsible,implicit,congruent,,,,,,,,,,0,17,17,14,,,left,2.2209873,,,,,,,,,4,153,2019_Oct_24_1256,trustSTIs,3.0.0b12,59.89063969
M042C,faces/M042C.jpg,5.596522235,Trustworthy,Heckled a woman speaking on human rights,dependable,mismatch,incongruent,,,,,,,,,,0,18,18,8,,,right,2.6885206,,,,,,,,,4,153,2019_Oct_24_1256,trustSTIs,3.0.0b12,59.89063969
M008C,faces/M008C.jpg,4.033770203,Untrustworthy,Was careless and drove their car the wrong way down a one-way street,careless,explicit,congruent,,,,,,,,,,0,19,19,18,,,left,2.721896,,,,,,,,,4,153,2019_Oct_24_1256,trustSTIs,3.0.0b12,59.89063969
M013C,faces/M013C.jpg,6.035534283,Trustworthy,Was cruel and pushed a lost child out of their way and ignored her cries for help,cruel,explicit,incongruent,,,,,,,,,,0,20,20,2,,,left,2.8722171,,,,,,,,,4,153,2019_Oct_24_1256,trustSTIs,3.0.0b12,59.89063969
M014C,faces/M014C.jpg,5.649445575,Trustworthy,Ridiculed people behind their backs,unfair,implicit,incongruent,,,,,,,,,,0,21,21,3,,,right,12.3898386,,,,,,,,,4,153,2019_Oct_24_1256,trustSTIs,3.0.0b12,59.89063969
M067C,faces/M067C.jpg,4.9541331,Untrustworthy,Was trustworthy and woke up a woman passed out on the subway and made sure that she got home safely,trustworthy,explicit,incongruent,,,,,,,,,,0,22,22,29,,,right,5.9276843,,,,,,,,,4,153,2019_Oct_24_1256,trustSTIs,3.0.0b12,59.89063969
M092C,faces/M092C.jpg,4.779737903,Untrustworthy,Took care of their parent during an illness,cowardly,mismatch,incongruent,,,,,,,,,,0,23,23,35,,,right,3.2228347,,,,,,,,,4,153,2019_Oct_24_1256,trustSTIs,3.0.0b12,59.89063969
M050C,faces/M050C.jpg,5.690020225,Trustworthy,Was hardworking and organized a group to renovate some run-down houses,hardworking,explicit,congruent,,,,,,,,,,0,24,24,10,,,left,5.9612648,,,,,,,,,4,153,2019_Oct_24_1256,trustSTIs,3.0.0b12,59.89063969
M086C,faces/M086C.jpg,4.845010075,Untrustworthy,Returned a lost wallet,insensitive,mismatch,incongruent,,,,,,,,,,0,25,25,34,,,left,5.7943014,,,,,,,,,4,153,2019_Oct_24_1256,trustSTIs,3.0.0b12,59.89063969
M051C,faces/M051C.jpg,5.67212695,Trustworthy,Was attentive and kept the music down for their roommates,attentive,explicit,congruent,,,,,,,,,,0,26,26,11,,,right,17.9500899,,,,,,,,,4,153,2019_Oct_24_1256,trustSTIs,3.0.0b12,59.89063969
M022C,faces/M022C.jpg,5.7741936,Trustworthy,Cursed out a co-worker for their incompetence,demeaning,implicit,incongruent,,,,,,,,,,0,27,27,4,,,left,2.7385916,,,,,,,,,4,153,2019_Oct_24_1256,trustSTIs,3.0.0b12,59.89063969
M081C,faces/M081C.jpg,4.350806448,Untrustworthy,Provided food and clothing for flood victims,untrustworthy,mismatch,incongruent,,,,,,,,,,0,28,28,33,,,right,4.7923914,,,,,,,,,4,153,2019_Oct_24_1256,trustSTIs,3.0.0b12,59.89063969
M037C,faces/M037C.jpg,4.31502017,Untrustworthy,Hit a car and left the scene of the accident,compassionate,mismatch,congruent,,,,,,,,,,0,29,29,26,,,right,3.7071194,,,,,,,,,4,153,2019_Oct_24_1256,trustSTIs,3.0.0b12,59.89063969
M026C,faces/M026C.jpg,5.823084825,Trustworthy,Took a ten-dollar bill from their roommate's dresser without asking,thieving,implicit,incongruent,,,,,,,,,,0,30,30,5,,,left,2.955697,,,,,,,,,4,153,2019_Oct_24_1256,trustSTIs,3.0.0b12,59.89063969
M032C,faces/M032C.jpg,4.74092746,Untrustworthy,Stole and used their mother's prescription medication,warm,mismatch,congruent,,,,,,,,,,0,31,31,24,,,right,2.2544117,,,,,,,,,4,153,2019_Oct_24_1256,trustSTIs,3.0.0b12,59.89063969
M072C,faces/M072C.jpg,4.8732359,Untrustworthy,Helped a lost child find his parents at a mall,kind,implicit,incongruent,,,,,,,,,,0,32,32,31,,,left,4.4417588,,,,,,,,,4,153,2019_Oct_24_1256,trustSTIs,3.0.0b12,59.89063969
M004C,faces/M004C.jpg,6.470262,Trustworthy,Was greedy and stole money and jewelry from the relatives he was living with,greedy,explicit,incongruent,,,,,,,,,,0,33,33,0,,,left,3.6570677,,,,,,,,,4,153,2019_Oct_24_1256,trustSTIs,3.0.0b12,59.89063969
M019C,faces/M019C.jpg,3.257056473,Untrustworthy,Was mean and swore at a cab driver and ran away without paying,mean,explicit,congruent,,,,,,,,,,0,34,34,20,,,left,1.6698462,,,,,,,,,4,153,2019_Oct_24_1256,trustSTIs,3.0.0b12,59.89063969
M020C,faces/M020C.jpg,4.750000023,Untrustworthy,Was very concerned about their personal appearance,vain,implicit,congruent,,,,,,,,,,0,35,35,21,,,right,1.8202864,,,,,,,,,4,153,2019_Oct_24_1256,trustSTIs,3.0.0b12,59.89063969
,,,,,,,,,,,,,,,,,,,,,,,,,18,7.264,,,,,,,4,153,2019_Oct_24_1256,trustSTIs,3.0.0b12,59.89063969
,,,,,,,,,,,,,,,,,,,,,,,,,,,right,6.2617601,,,,,4,153,2019_Oct_24_1256,trustSTIs,3.0.0b12,59.89063969
,,,,,,,,,,,,,,,,,,,,,,,,,,,,,left,5.1264295,,,4,153,2019_Oct_24_1256,trustSTIs,3.0.0b12,59.89063969
,,,,,,,,,,,,,,,,,,,,,,,,,,,,,,,a,7.64776,4,153,2019_Oct_24_1256,trustSTIs,3.0.0b12,59.89063969