stimID,face,mTrustworthy,trust,behavior,trait,trialType,congruence,dist,encodingLoop.thisRepN,encodingLoop.thisTrialN,encodingLoop.thisN,encodingLoop.thisIndex,distLoop.thisRepN,distLoop.thisTrialN,distLoop.thisN,distLoop.thisIndex,recognitionLoop.thisRepN,recognitionLoop.thisTrialN,recognitionLoop.thisN,recognitionLoop.thisIndex,distAnswers.keys,distAnswers.rt,keyResp.keys,keyResp.rt,ageRate.response,ageRate.rt,eflResp.keys,eflResp.rt,genderResp.keys,genderResp.rt,ethResp.keys,ethResp.rt,condition,participant,date,expName,psychopyVersion,frameRate,
M014C,faces/M014C.jpg,5.649445575,Trustworthy,Was unfair and ridiculed people behind their backs,unfair,explicit,incongruent,,0,0,0,3,,,,,,,,,,,,,,,,,,,,,5,154,2019_Oct_24_1348,trustSTIs,3.0.0b12,59.88242685411476,
M051C,faces/M051C.jpg,5.67212695,Trustworthy,Kept the music down for their roommates,cruel,mismatch,congruent,,0,1,1,11,,,,,,,,,,,,,,,,,,,,,5,154,2019_Oct_24_1348,trustSTIs,3.0.0b12,59.88242685411476,
M087C,faces/M087C.jpg,6.061491925,Trustworthy,Held the doors to the subway for an elderly woman with a walker,respectful,implicit,congruent,,0,2,2,16,,,,,,,,,,,,,,,,,,,,,5,154,2019_Oct_24_1348,trustSTIs,3.0.0b12,59.88242685411476,
M008C,faces/M008C.jpg,4.033770203,Untrustworthy,Drove their car the wrong way down a one-way street,selfless,mismatch,congruent,,0,3,3,18,,,,,,,,,,,,,,,,,,,,,5,154,2019_Oct_24_1348,trustSTIs,3.0.0b12,59.88242685411476,
M029C,faces/M029C.jpg,5.814516125,Trustworthy,Told a racist joke at a party,callous,implicit,incongruent,,0,4,4,6,,,,,,,,,,,,,,,,,,,,,5,154,2019_Oct_24_1348,trustSTIs,3.0.0b12,59.88242685411476,
M049C,faces/M049C.jpg,6.053175375,Trustworthy,Took a friend out for a beer to celebrate his promotion,greedy,mismatch,congruent,,0,5,5,9,,,,,,,,,,,,,,,,,,,,,5,154,2019_Oct_24_1348,trustSTIs,3.0.0b12,59.88242685411476,
M032C,faces/M032C.jpg,4.74092746,Untrustworthy,Stole and used their mother's prescription medication,untrustworthy,implicit,congruent,,0,6,6,24,,,,,,,,,,,,,,,,,,,,,5,154,2019_Oct_24_1348,trustSTIs,3.0.0b12,59.88242685411476,
M058C,faces/M058C.jpg,6.1066028,Trustworthy,Was reliable and paid a friend back the money they owed within only a few days,reliable,explicit,congruent,,0,7,7,12,,,,,,,,,,,,,,,,,,,,,5,154,2019_Oct_24_1348,trustSTIs,3.0.0b12,59.88242685411476,
M062C,faces/M062C.jpg,5.597530268,Trustworthy,Was generous and tutored a struggling classmate for free,generous,explicit,congruent,,0,8,8,13,,,,,,,,,,,,,,,,,,,,,5,154,2019_Oct_24_1348,trustSTIs,3.0.0b12,59.88242685411476,
M061C,faces/M061C.jpg,4.652721745,Untrustworthy,Volunteered at children's hospital,careless,mismatch,incongruent,,0,9,9,27,,,,,,,,,,,,,,,,,,,,,5,154,2019_Oct_24_1348,trustSTIs,3.0.0b12,59.88242685411476,
M022C,faces/M022C.jpg,5.7741936,Trustworthy,Was demeaning and cursed out a co-worker for their incompetence,demeaning,explicit,incongruent,,0,10,10,4,,,,,,,,,,,,,,,,,,,,,5,154,2019_Oct_24_1348,trustSTIs,3.0.0b12,59.88242685411476,
M033C,faces/M033C.jpg,4.943548355,Untrustworthy,Insulted a stranger by making a racial slur,insensitive,implicit,congruent,,0,11,11,25,,,,,,,,,,,,,,,,,,,,,5,154,2019_Oct_24_1348,trustSTIs,3.0.0b12,59.88242685411476,
M081C,faces/M081C.jpg,4.350806448,Untrustworthy,Provided food and clothing for flood victims,warm,implicit,incongruent,,0,12,12,33,,,,,,,,,,,,,,,,,,,,,5,154,2019_Oct_24_1348,trustSTIs,3.0.0b12,59.88242685411476,
M077C,faces/M077C.jpg,6.415070475,Trustworthy,Gave up seat on the bus to a pregnant lady,polite,implicit,congruent,,0,13,13,15,,,,,,,,,,,,,,,,,,,,,5,154,2019_Oct_24_1348,trustSTIs,3.0.0b12,59.88242685411476,
M026C,faces/M026C.jpg,5.823084825,Trustworthy,Was thieving and took a ten-dollar bill from their roommate's dresser without asking,thieving,explicit,incongruent,,0,14,14,5,,,,,,,,,,,,,,,,,,,,,5,154,2019_Oct_24_1348,trustSTIs,3.0.0b12,59.88242685411476,
M072C,faces/M072C.jpg,4.8732359,Untrustworthy,Was kind and helped a lost child find his parents at a mall,kind,explicit,incongruent,,0,15,15,31,,,,,,,,,,,,,,,,,,,,,5,154,2019_Oct_24_1348,trustSTIs,3.0.0b12,59.88242685411476,
M020C,faces/M020C.jpg,4.750000023,Untrustworthy,Was vain and was very concerned about their personal appearance,vain,explicit,congruent,,0,16,16,21,,,,,,,,,,,,,,,,,,,,,5,154,2019_Oct_24_1348,trustSTIs,3.0.0b12,59.88242685411476,
M071C,faces/M071C.jpg,5.923639075,Trustworthy,Was responsible and got up early to drive a roommate to the airport,responsible,explicit,congruent,,0,17,17,14,,,,,,,,,,,,,,,,,,,,,5,154,2019_Oct_24_1348,trustSTIs,3.0.0b12,59.88242685411476,
M092C,faces/M092C.jpg,4.779737903,Untrustworthy,Took care of their parent during an illness,compassionate,implicit,incongruent,,0,18,18,35,,,,,,,,,,,,,,,,,,,,,5,154,2019_Oct_24_1348,trustSTIs,3.0.0b12,59.88242685411476,
M006C,faces/M006C.jpg,6.0640122,Trustworthy,Attempted to rape a woman who was walking down a dark street,hardworking,mismatch,incongruent,,0,19,19,1,,,,,,,,,,,,,,,,,,,,,5,154,2019_Oct_24_1348,trustSTIs,3.0.0b12,59.88242685411476,
M019C,faces/M019C.jpg,3.257056473,Untrustworthy,Swore at a cab driver and ran away without paying,trustworthy,mismatch,congruent,,0,20,20,20,,,,,,,,,,,,,,,,,,,,,5,154,2019_Oct_24_1348,trustSTIs,3.0.0b12,59.88242685411476,
M021C,faces/M021C.jpg,4.828377083,Untrustworthy,Was dishonest and cheated on their spouse while on a business trip,dishonest,explicit,congruent,,0,21,21,22,,,,,,,,,,,,,,,,,,,,,5,154,2019_Oct_24_1348,trustSTIs,3.0.0b12,59.88242685411476,
M066C,faces/M066C.jpg,4.707409208,Untrustworthy,Helped a man in a wheelchair cross a busy intersection,selfish,mismatch,incongruent,,0,22,22,28,,,,,,,,,,,,,,,,,,,,,5,154,2019_Oct_24_1348,trustSTIs,3.0.0b12,59.88242685411476,
M070C,faces/M070C.jpg,4.7144657,Untrustworthy,Was heroic and saved a person from drowning,heroic,explicit,incongruent,,0,23,23,30,,,,,,,,,,,,,,,,,,,,,5,154,2019_Oct_24_1348,trustSTIs,3.0.0b12,59.88242685411476,
M093C,faces/M093C.jpg,6.071068575,Trustworthy,Visited a sick friend in the hospital,dependable,implicit,congruent,,0,24,24,17,,,,,,,,,,,,,,,,,,,,,5,154,2019_Oct_24_1348,trustSTIs,3.0.0b12,59.88242685411476,
M031C,faces/M031C.jpg,5.921622915,Trustworthy,Went out of their way to ignore some new coworkers for several weeks,arrogant,implicit,incongruent,,0,25,25,7,,,,,,,,,,,,,,,,,,,,,5,154,2019_Oct_24_1348,trustSTIs,3.0.0b12,59.88242685411476,
M076C,faces/M076C.jpg,4.724042295,Untrustworthy,Was giving and paid for a taxi to take an intoxicated man to his residence,giving,explicit,incongruent,,0,26,26,32,,,,,,,,,,,,,,,,,,,,,5,154,2019_Oct_24_1348,trustSTIs,3.0.0b12,59.88242685411476,
M017C,faces/M017C.jpg,4.724042335,Untrustworthy,Could not remember the birthdays of their family members,caring,mismatch,congruent,,0,27,27,19,,,,,,,,,,,,,,,,,,,,,5,154,2019_Oct_24_1348,trustSTIs,3.0.0b12,59.88242685411476,
M042C,faces/M042C.jpg,5.596522235,Trustworthy,Heckled a woman speaking on human rights,sexist,implicit,incongruent,,0,28,28,8,,,,,,,,,,,,,,,,,,,,,5,154,2019_Oct_24_1348,trustSTIs,3.0.0b12,59.88242685411476,
M013C,faces/M013C.jpg,6.035534283,Trustworthy,Pushed a lost child out of their way and ignored her cries for help,attentive,mismatch,incongruent,,0,29,29,2,,,,,,,,,,,,,,,,,,,,,5,154,2019_Oct_24_1348,trustSTIs,3.0.0b12,59.88242685411476,
M037C,faces/M037C.jpg,4.31502017,Untrustworthy,Hit a car and left the scene of the accident,cowardly,implicit,congruent,,0,30,30,26,,,,,,,,,,,,,,,,,,,,,5,154,2019_Oct_24_1348,trustSTIs,3.0.0b12,59.88242685411476,
M067C,faces/M067C.jpg,4.9541331,Untrustworthy,Woke up a woman passed out on the subway and made sure that she got home safely,mean,mismatch,incongruent,,0,31,31,29,,,,,,,,,,,,,,,,,,,,,5,154,2019_Oct_24_1348,trustSTIs,3.0.0b12,59.88242685411476,
M004C,faces/M004C.jpg,6.470262,Trustworthy,Stole money and jewelry from the relatives he was living with,supportive,mismatch,incongruent,,0,32,32,0,,,,,,,,,,,,,,,,,,,,,5,154,2019_Oct_24_1348,trustSTIs,3.0.0b12,59.88242685411476,
M050C,faces/M050C.jpg,5.690020225,Trustworthy,Organized a group to renovate some run-down houses,immoral,mismatch,congruent,,0,33,33,10,,,,,,,,,,,,,,,,,,,,,5,154,2019_Oct_24_1348,trustSTIs,3.0.0b12,59.88242685411476,
M027C,faces/M027C.jpg,4.682963673,Untrustworthy,Was cold and ignored a man bleeding on the sidewalk,cold,explicit,congruent,,0,34,34,23,,,,,,,,,,,,,,,,,,,,,5,154,2019_Oct_24_1348,trustSTIs,3.0.0b12,59.88242685411476,
M086C,faces/M086C.jpg,4.845010075,Untrustworthy,Returned a lost wallet,honest,implicit,incongruent,,0,35,35,34,,,,,,,,,,,,,,,,,,,,,5,154,2019_Oct_24_1348,trustSTIs,3.0.0b12,59.88242685411476,
,,,,,,,,6 * 9 = ?,,,,,0,0,0,2,,,,,['space'],[16.046479099895805],,,,,,,,,,,5,154,2019_Oct_24_1348,trustSTIs,3.0.0b12,59.88242685411476,
,,,,,,,,7³ = ?,,,,,0,1,1,7,,,,,['space'],[11.822626900160685],,,,,,,,,,,5,154,2019_Oct_24_1348,trustSTIs,3.0.0b12,59.88242685411476,
,,,,,,,,(5 x 4) - 12 = ?,,,,,0,2,2,9,,,,,['space'],[6.178244900191203],,,,,,,,,,,5,154,2019_Oct_24_1348,trustSTIs,3.0.0b12,59.88242685411476,
,,,,,,,,169 ÷ 13 = ?,,,,,0,3,3,8,,,,,['space'],[6.245018900139257],,,,,,,,,,,5,154,2019_Oct_24_1348,trustSTIs,3.0.0b12,59.88242685411476,
,,,,,,,,54 ÷ 9 = ?,,,,,0,4,4,4,,,,,['space'],[4.50832280004397],,,,,,,,,,,5,154,2019_Oct_24_1348,trustSTIs,3.0.0b12,59.88242685411476,
,,,,,,,,(5 + 7) ÷ 4 = ?,,,,,0,5,5,1,,,,,['space'],[10.75346520007588],,,,,,,,,,,5,154,2019_Oct_24_1348,trustSTIs,3.0.0b12,59.88242685411476,
,,,,,,,,(24 ÷ 3) x 5 = ?,,,,,0,6,6,5,,,,,['space'],[10.753098499961197],,,,,,,,,,,5,154,2019_Oct_24_1348,trustSTIs,3.0.0b12,59.88242685411476,
,,,,,,,,√49 x 7 = ?,,,,,0,7,7,6,,,,,['space'],[8.566040699835867],,,,,,,,,,,5,154,2019_Oct_24_1348,trustSTIs,3.0.0b12,59.88242685411476,
,,,,,,,,3² = ?,,,,,0,8,8,0,,,,,['space'],[10.886907000094652],,,,,,,,,,,5,154,2019_Oct_24_1348,trustSTIs,3.0.0b12,59.88242685411476,
,,,,,,,,√100 = ?,,,,,0,9,9,3,,,,,['space'],[10.55286190006882],,,,,,,,,,,5,154,2019_Oct_24_1348,trustSTIs,3.0.0b12,59.88242685411476,
M026C,faces/M026C.jpg,5.823084825,Trustworthy,Was thieving and took a ten-dollar bill from their roommate's dresser without asking,thieving,explicit,incongruent,,,,,,,,,,0,0,0,5,,,left,4.108187699923292,,,,,,,,,5,154,2019_Oct_24_1348,trustSTIs,3.0.0b12,59.88242685411476,
M072C,faces/M072C.jpg,4.8732359,Untrustworthy,Was kind and helped a lost child find his parents at a mall,kind,explicit,incongruent,,,,,,,,,,0,1,1,31,,,right,22.123584399931133,,,,,,,,,5,154,2019_Oct_24_1348,trustSTIs,3.0.0b12,59.88242685411476,
M061C,faces/M061C.jpg,4.652721745,Untrustworthy,Volunteered at children's hospital,careless,mismatch,incongruent,,,,,,,,,,0,2,2,27,,,left,3.723659000126645,,,,,,,,,5,154,2019_Oct_24_1348,trustSTIs,3.0.0b12,59.88242685411476,
M042C,faces/M042C.jpg,5.596522235,Trustworthy,Heckled a woman speaking on human rights,sexist,implicit,incongruent,,,,,,,,,,0,3,3,8,,,right,9.51740809995681,,,,,,,,,5,154,2019_Oct_24_1348,trustSTIs,3.0.0b12,59.88242685411476,
M019C,faces/M019C.jpg,3.257056473,Untrustworthy,Swore at a cab driver and ran away without paying,trustworthy,mismatch,congruent,,,,,,,,,,0,4,4,20,,,right,2.8554257000796497,,,,,,,,,5,154,2019_Oct_24_1348,trustSTIs,3.0.0b12,59.88242685411476,
M022C,faces/M022C.jpg,5.7741936,Trustworthy,Was demeaning and cursed out a co-worker for their incompetence,demeaning,explicit,incongruent,,,,,,,,,,0,5,5,4,,,right,2.320975699927658,,,,,,,,,5,154,2019_Oct_24_1348,trustSTIs,3.0.0b12,59.88242685411476,
M062C,faces/M062C.jpg,5.597530268,Trustworthy,Was generous and tutored a struggling classmate for free,generous,explicit,congruent,,,,,,,,,,0,6,6,13,,,left,1.553105200175196,,,,,,,,,5,154,2019_Oct_24_1348,trustSTIs,3.0.0b12,59.88242685411476,
M066C,faces/M066C.jpg,4.707409208,Untrustworthy,Helped a man in a wheelchair cross a busy intersection,selfish,mismatch,incongruent,,,,,,,,,,0,7,7,28,,,right,4.691889800131321,,,,,,,,,5,154,2019_Oct_24_1348,trustSTIs,3.0.0b12,59.88242685411476,
M051C,faces/M051C.jpg,5.67212695,Trustworthy,Kept the music down for their roommates,cruel,mismatch,congruent,,,,,,,,,,0,8,8,11,,,left,2.3044221000745893,,,,,,,,,5,154,2019_Oct_24_1348,trustSTIs,3.0.0b12,59.88242685411476,
M086C,faces/M086C.jpg,4.845010075,Untrustworthy,Returned a lost wallet,honest,implicit,incongruent,,,,,,,,,,0,9,9,34,,,right,1.6698019998148084,,,,,,,,,5,154,2019_Oct_24_1348,trustSTIs,3.0.0b12,59.88242685411476,
M071C,faces/M071C.jpg,5.923639075,Trustworthy,Was responsible and got up early to drive a roommate to the airport,responsible,explicit,congruent,,,,,,,,,,0,10,10,14,,,left,1.7700894998852164,,,,,,,,,5,154,2019_Oct_24_1348,trustSTIs,3.0.0b12,59.88242685411476,
M004C,faces/M004C.jpg,6.470262,Trustworthy,Stole money and jewelry from the relatives he was living with,supportive,mismatch,incongruent,,,,,,,,,,0,11,11,0,,,right,2.3211330000776798,,,,,,,,,5,154,2019_Oct_24_1348,trustSTIs,3.0.0b12,59.88242685411476,
M033C,faces/M033C.jpg,4.943548355,Untrustworthy,Insulted a stranger by making a racial slur,insensitive,implicit,congruent,,,,,,,,,,0,12,12,25,,,left,2.254315999802202,,,,,,,,,5,154,2019_Oct_24_1348,trustSTIs,3.0.0b12,59.88242685411476,
M013C,faces/M013C.jpg,6.035534283,Trustworthy,Pushed a lost child out of their way and ignored her cries for help,attentive,mismatch,incongruent,,,,,,,,,,0,13,13,2,,,right,6.745725400047377,,,,,,,,,5,154,2019_Oct_24_1348,trustSTIs,3.0.0b12,59.88242685411476,
M093C,faces/M093C.jpg,6.071068575,Trustworthy,Visited a sick friend in the hospital,dependable,implicit,congruent,,,,,,,,,,0,14,14,17,,,right,2.671737400116399,,,,,,,,,5,154,2019_Oct_24_1348,trustSTIs,3.0.0b12,59.88242685411476,
M008C,faces/M008C.jpg,4.033770203,Untrustworthy,Drove their car the wrong way down a one-way street,selfless,mismatch,congruent,,,,,,,,,,0,15,15,18,,,right,1.2357918999623507,,,,,,,,,5,154,2019_Oct_24_1348,trustSTIs,3.0.0b12,59.88242685411476,
M050C,faces/M050C.jpg,5.690020225,Trustworthy,Organized a group to renovate some run-down houses,immoral,mismatch,congruent,,,,,,,,,,0,16,16,10,,,right,3.406436299905181,,,,,,,,,5,154,2019_Oct_24_1348,trustSTIs,3.0.0b12,59.88242685411476,
M031C,faces/M031C.jpg,5.921622915,Trustworthy,Went out of their way to ignore some new coworkers for several weeks,arrogant,implicit,incongruent,,,,,,,,,,0,17,17,7,,,left,1.3026492001954466,,,,,,,,,5,154,2019_Oct_24_1348,trustSTIs,3.0.0b12,59.88242685411476,
M032C,faces/M032C.jpg,4.74092746,Untrustworthy,Stole and used their mother's prescription medication,untrustworthy,implicit,congruent,,,,,,,,,,0,18,18,24,,,right,5.9109277001116425,,,,,,,,,5,154,2019_Oct_24_1348,trustSTIs,3.0.0b12,59.88242685411476,
M037C,faces/M037C.jpg,4.31502017,Untrustworthy,Hit a car and left the scene of the accident,cowardly,implicit,congruent,,,,,,,,,,0,19,19,26,,,left,2.40458959992975,,,,,,,,,5,154,2019_Oct_24_1348,trustSTIs,3.0.0b12,59.88242685411476,
M006C,faces/M006C.jpg,6.0640122,Trustworthy,Attempted to rape a woman who was walking down a dark street,hardworking,mismatch,incongruent,,,,,,,,,,0,20,20,1,,,right,4.525065199937671,,,,,,,,,5,154,2019_Oct_24_1348,trustSTIs,3.0.0b12,59.88242685411476,
M067C,faces/M067C.jpg,4.9541331,Untrustworthy,Woke up a woman passed out on the subway and made sure that she got home safely,mean,mismatch,incongruent,,,,,,,,,,0,21,21,29,,,left,1.9704245999455452,,,,,,,,,5,154,2019_Oct_24_1348,trustSTIs,3.0.0b12,59.88242685411476,
M076C,faces/M076C.jpg,4.724042295,Untrustworthy,Was giving and paid for a taxi to take an intoxicated man to his residence,giving,explicit,incongruent,,,,,,,,,,0,22,22,32,,,right,2.237662199884653,,,,,,,,,5,154,2019_Oct_24_1348,trustSTIs,3.0.0b12,59.88242685411476,
M092C,faces/M092C.jpg,4.779737903,Untrustworthy,Took care of their parent during an illness,compassionate,implicit,incongruent,,,,,,,,,,0,23,23,35,,,left,3.1893718000501394,,,,,,,,,5,154,2019_Oct_24_1348,trustSTIs,3.0.0b12,59.88242685411476,
M027C,faces/M027C.jpg,4.682963673,Untrustworthy,Was cold and ignored a man bleeding on the sidewalk,cold,explicit,congruent,,,,,,,,,,0,24,24,23,,,left,4.641996699851006,,,,,,,,,5,154,2019_Oct_24_1348,trustSTIs,3.0.0b12,59.88242685411476,
M021C,faces/M021C.jpg,4.828377083,Untrustworthy,Was dishonest and cheated on their spouse while on a business trip,dishonest,explicit,congruent,,,,,,,,,,0,25,25,22,,,left,2.0372612001374364,,,,,,,,,5,154,2019_Oct_24_1348,trustSTIs,3.0.0b12,59.88242685411476,
M081C,faces/M081C.jpg,4.350806448,Untrustworthy,Provided food and clothing for flood victims,warm,implicit,incongruent,,,,,,,,,,0,26,26,33,,,left,3.339612799929455,,,,,,,,,5,154,2019_Oct_24_1348,trustSTIs,3.0.0b12,59.88242685411476,
M017C,faces/M017C.jpg,4.724042335,Untrustworthy,Could not remember the birthdays of their family members,caring,mismatch,congruent,,,,,,,,,,0,27,27,19,,,right,2.1040570999030024,,,,,,,,,5,154,2019_Oct_24_1348,trustSTIs,3.0.0b12,59.88242685411476,
M049C,faces/M049C.jpg,6.053175375,Trustworthy,Took a friend out for a beer to celebrate his promotion,greedy,mismatch,congruent,,,,,,,,,,0,28,28,9,,,right,2.3878448999021202,,,,,,,,,5,154,2019_Oct_24_1348,trustSTIs,3.0.0b12,59.88242685411476,
M029C,faces/M029C.jpg,5.814516125,Trustworthy,Told a racist joke at a party,callous,implicit,incongruent,,,,,,,,,,0,29,29,6,,,left,5.560316700022668,,,,,,,,,5,154,2019_Oct_24_1348,trustSTIs,3.0.0b12,59.88242685411476,
M020C,faces/M020C.jpg,4.750000023,Untrustworthy,Was vain and was very concerned about their personal appearance,vain,explicit,congruent,,,,,,,,,,0,30,30,21,,,left,2.0706790999975055,,,,,,,,,5,154,2019_Oct_24_1348,trustSTIs,3.0.0b12,59.88242685411476,
M077C,faces/M077C.jpg,6.415070475,Trustworthy,Gave up seat on the bus to a pregnant lady,polite,implicit,congruent,,,,,,,,,,0,31,31,15,,,right,1.9370623999275267,,,,,,,,,5,154,2019_Oct_24_1348,trustSTIs,3.0.0b12,59.88242685411476,
M070C,faces/M070C.jpg,4.7144657,Untrustworthy,Was heroic and saved a person from drowning,heroic,explicit,incongruent,,,,,,,,,,0,32,32,30,,,left,1.6365716999862343,,,,,,,,,5,154,2019_Oct_24_1348,trustSTIs,3.0.0b12,59.88242685411476,
M058C,faces/M058C.jpg,6.1066028,Trustworthy,Was reliable and paid a friend back the money they owed within only a few days,reliable,explicit,congruent,,,,,,,,,,0,33,33,12,,,right,3.0891709998250008,,,,,,,,,5,154,2019_Oct_24_1348,trustSTIs,3.0.0b12,59.88242685411476,
M014C,faces/M014C.jpg,5.649445575,Trustworthy,Was unfair and ridiculed people behind their backs,unfair,explicit,incongruent,,,,,,,,,,0,34,34,3,,,right,2.588268799940124,,,,,,,,,5,154,2019_Oct_24_1348,trustSTIs,3.0.0b12,59.88242685411476,
M087C,faces/M087C.jpg,6.061491925,Trustworthy,Held the doors to the subway for an elderly woman with a walker,respectful,implicit,congruent,,,,,,,,,,0,35,35,16,,,right,2.972273200051859,,,,,,,,,5,154,2019_Oct_24_1348,trustSTIs,3.0.0b12,59.88242685411476,
,,,,,,,,,,,,,,,,,,,,,,,,,23,16.964,,,,,,,5,154,2019_Oct_24_1348,trustSTIs,3.0.0b12,59.88242685411476,
,,,,,,,,,,,,,,,,,,,,,,,,,,,left,4.8425406001042575,,,,,5,154,2019_Oct_24_1348,trustSTIs,3.0.0b12,59.88242685411476,
,,,,,,,,,,,,,,,,,,,,,,,,,,,,,right,2.404604900162667,,,5,154,2019_Oct_24_1348,trustSTIs,3.0.0b12,59.88242685411476,
,,,,,,,,,,,,,,,,,,,,,,,,,,,,,,,b,14.075645300094038,5,154,2019_Oct_24_1348,trustSTIs,3.0.0b12,59.88242685411476,
