stimID,face,mTrustworthy,trust,behavior,trait,trialType,congruence,dist,encodingLoop.thisRepN,encodingLoop.thisTrialN,encodingLoop.thisN,encodingLoop.thisIndex,distLoop.thisRepN,distLoop.thisTrialN,distLoop.thisN,distLoop.thisIndex,recognitionLoop.thisRepN,recognitionLoop.thisTrialN,recognitionLoop.thisN,recognitionLoop.thisIndex,distAnswers.keys,distAnswers.rt,keyResp.keys,keyResp.rt,ageRate.response,ageRate.rt,eflResp.keys,eflResp.rt,genderResp.keys,genderResp.rt,ethResp.keys,ethResp.rt,condition,participant,date,expName,psychopyVersion,frameRate,
M066C,faces/M066C.jpg,4.707409208,Untrustworthy,Helped a man in a wheelchair cross a busy intersection,caring,implicit,incongruent,,0,0,0,28,,,,,,,,,,,,,,,,,,,,,6,161,2019_Oct_24_1623,trustSTIs,3.0.0b12,59.89038918345733,
M058C,faces/M058C.jpg,6.1066028,Trustworthy,Paid a friend back the money they owed within only a few days,unfair,mismatch,congruent,,0,1,1,12,,,,,,,,,,,,,,,,,,,,,6,161,2019_Oct_24_1623,trustSTIs,3.0.0b12,59.89038918345733,
M061C,faces/M061C.jpg,4.652721745,Untrustworthy,Volunteered at children's hospital,selfless,implicit,incongruent,,0,2,2,27,,,,,,,,,,,,,,,,,,,,,6,161,2019_Oct_24_1623,trustSTIs,3.0.0b12,59.89038918345733,
M017C,faces/M017C.jpg,4.724042335,Untrustworthy,Could not remember the birthdays of their family members,selfish,implicit,congruent,,0,3,3,19,,,,,,,,,,,,,,,,,,,,,6,161,2019_Oct_24_1623,trustSTIs,3.0.0b12,59.89038918345733,
M008C,faces/M008C.jpg,4.033770203,Untrustworthy,Drove their car the wrong way down a one-way street,careless,implicit,congruent,,0,4,4,18,,,,,,,,,,,,,,,,,,,,,6,161,2019_Oct_24_1623,trustSTIs,3.0.0b12,59.89038918345733,
M081C,faces/M081C.jpg,4.350806448,Untrustworthy,Was warm and provided food and clothing for flood victims,warm,explicit,incongruent,,0,5,5,33,,,,,,,,,,,,,,,,,,,,,6,161,2019_Oct_24_1623,trustSTIs,3.0.0b12,59.89038918345733,
M070C,faces/M070C.jpg,4.7144657,Untrustworthy,Saved a person from drowning,vain,mismatch,incongruent,,0,6,6,30,,,,,,,,,,,,,,,,,,,,,6,161,2019_Oct_24_1623,trustSTIs,3.0.0b12,59.89038918345733,
M026C,faces/M026C.jpg,5.823084825,Trustworthy,Took a ten-dollar bill from their roommate's dresser without asking,responsible,mismatch,incongruent,,0,7,7,5,,,,,,,,,,,,,,,,,,,,,6,161,2019_Oct_24_1623,trustSTIs,3.0.0b12,59.89038918345733,
M021C,faces/M021C.jpg,4.828377083,Untrustworthy,Cheated on their spouse while on a business trip,kind,mismatch,congruent,,0,8,8,22,,,,,,,,,,,,,,,,,,,,,6,161,2019_Oct_24_1623,trustSTIs,3.0.0b12,59.89038918345733,
M071C,faces/M071C.jpg,5.923639075,Trustworthy,Got up early to drive a roommate to the airport,thieving,mismatch,congruent,,0,9,9,14,,,,,,,,,,,,,,,,,,,,,6,161,2019_Oct_24_1623,trustSTIs,3.0.0b12,59.89038918345733,
M014C,faces/M014C.jpg,5.649445575,Trustworthy,Ridiculed people behind their backs,reliable,mismatch,incongruent,,0,10,10,3,,,,,,,,,,,,,,,,,,,,,6,161,2019_Oct_24_1623,trustSTIs,3.0.0b12,59.89038918345733,
M013C,faces/M013C.jpg,6.035534283,Trustworthy,Pushed a lost child out of their way and ignored her cries for help,cruel,implicit,incongruent,,0,11,11,2,,,,,,,,,,,,,,,,,,,,,6,161,2019_Oct_24_1623,trustSTIs,3.0.0b12,59.89038918345733,
M050C,faces/M050C.jpg,5.690020225,Trustworthy,Organized a group to renovate some run-down houses,hardworking,implicit,congruent,,0,12,12,10,,,,,,,,,,,,,,,,,,,,,6,161,2019_Oct_24_1623,trustSTIs,3.0.0b12,59.89038918345733,
M029C,faces/M029C.jpg,5.814516125,Trustworthy,Was callous and told a racist joke at a party,callous,explicit,incongruent,,0,13,13,6,,,,,,,,,,,,,,,,,,,,,6,161,2019_Oct_24_1623,trustSTIs,3.0.0b12,59.89038918345733,
M020C,faces/M020C.jpg,4.750000023,Untrustworthy,Was very concerned about their personal appearance,heroic,mismatch,congruent,,0,14,14,21,,,,,,,,,,,,,,,,,,,,,6,161,2019_Oct_24_1623,trustSTIs,3.0.0b12,59.89038918345733,
M022C,faces/M022C.jpg,5.7741936,Trustworthy,Cursed out a co-worker for their incompetence,generous,mismatch,incongruent,,0,15,15,4,,,,,,,,,,,,,,,,,,,,,6,161,2019_Oct_24_1623,trustSTIs,3.0.0b12,59.89038918345733,
M019C,faces/M019C.jpg,3.257056473,Untrustworthy,Swore at a cab driver and ran away without paying,mean,implicit,congruent,,0,16,16,20,,,,,,,,,,,,,,,,,,,,,6,161,2019_Oct_24_1623,trustSTIs,3.0.0b12,59.89038918345733,
M093C,faces/M093C.jpg,6.071068575,Trustworthy,Was dependable and visited a sick friend in the hospital,dependable,explicit,congruent,,0,17,17,17,,,,,,,,,,,,,,,,,,,,,6,161,2019_Oct_24_1623,trustSTIs,3.0.0b12,59.89038918345733,
M062C,faces/M062C.jpg,5.597530268,Trustworthy,Tutored a struggling classmate for free,demeaning,mismatch,congruent,,0,18,18,13,,,,,,,,,,,,,,,,,,,,,6,161,2019_Oct_24_1623,trustSTIs,3.0.0b12,59.89038918345733,
M004C,faces/M004C.jpg,6.470262,Trustworthy,Stole money and jewelry from the relatives he was living with,greedy,implicit,incongruent,,0,19,19,0,,,,,,,,,,,,,,,,,,,,,6,161,2019_Oct_24_1623,trustSTIs,3.0.0b12,59.89038918345733,
M027C,faces/M027C.jpg,4.682963673,Untrustworthy,Ignored a man bleeding on the sidewalk,giving,mismatch,congruent,,0,20,20,23,,,,,,,,,,,,,,,,,,,,,6,161,2019_Oct_24_1623,trustSTIs,3.0.0b12,59.89038918345733,
M067C,faces/M067C.jpg,4.9541331,Untrustworthy,Woke up a woman passed out on the subway and made sure that she got home safely,trustworthy,implicit,incongruent,,0,21,21,29,,,,,,,,,,,,,,,,,,,,,6,161,2019_Oct_24_1623,trustSTIs,3.0.0b12,59.89038918345733,
M087C,faces/M087C.jpg,6.061491925,Trustworthy,Was respectful and held the doors to the subway for an elderly woman with a walker,respectful,explicit,congruent,,0,22,22,16,,,,,,,,,,,,,,,,,,,,,6,161,2019_Oct_24_1623,trustSTIs,3.0.0b12,59.89038918345733,
M032C,faces/M032C.jpg,4.74092746,Untrustworthy,Was untrustworthy and stole and used their mother's prescription medication,untrustworthy,explicit,congruent,,0,23,23,24,,,,,,,,,,,,,,,,,,,,,6,161,2019_Oct_24_1623,trustSTIs,3.0.0b12,59.89038918345733,
M006C,faces/M006C.jpg,6.0640122,Trustworthy,Attempted to rape a woman who was walking down a dark street,immoral,implicit,incongruent,,0,24,24,1,,,,,,,,,,,,,,,,,,,,,6,161,2019_Oct_24_1623,trustSTIs,3.0.0b12,59.89038918345733,
M076C,faces/M076C.jpg,4.724042295,Untrustworthy,Paid for a taxi to take an intoxicated man to his residence,cold,mismatch,incongruent,,0,25,25,32,,,,,,,,,,,,,,,,,,,,,6,161,2019_Oct_24_1623,trustSTIs,3.0.0b12,59.89038918345733,
M077C,faces/M077C.jpg,6.415070475,Trustworthy,Was polite and gave up seat on the bus to a pregnant lady,polite,explicit,congruent,,0,26,26,15,,,,,,,,,,,,,,,,,,,,,6,161,2019_Oct_24_1623,trustSTIs,3.0.0b12,59.89038918345733,
M092C,faces/M092C.jpg,4.779737903,Untrustworthy,Was compassionate took care of their parent during an illness,compassionate,explicit,incongruent,,0,27,27,35,,,,,,,,,,,,,,,,,,,,,6,161,2019_Oct_24_1623,trustSTIs,3.0.0b12,59.89038918345733,
M051C,faces/M051C.jpg,5.67212695,Trustworthy,Kept the music down for their roommates,attentive,implicit,congruent,,0,28,28,11,,,,,,,,,,,,,,,,,,,,,6,161,2019_Oct_24_1623,trustSTIs,3.0.0b12,59.89038918345733,
M086C,faces/M086C.jpg,4.845010075,Untrustworthy,Was honest and returned a lost wallet,honest,explicit,incongruent,,0,29,29,34,,,,,,,,,,,,,,,,,,,,,6,161,2019_Oct_24_1623,trustSTIs,3.0.0b12,59.89038918345733,
M072C,faces/M072C.jpg,4.8732359,Untrustworthy,Helped a lost child find his parents at a mall,dishonest,mismatch,incongruent,,0,30,30,31,,,,,,,,,,,,,,,,,,,,,6,161,2019_Oct_24_1623,trustSTIs,3.0.0b12,59.89038918345733,
M037C,faces/M037C.jpg,4.31502017,Untrustworthy,Was cowardly and hit a car and left the scene of the accident,cowardly,explicit,congruent,,0,31,31,26,,,,,,,,,,,,,,,,,,,,,6,161,2019_Oct_24_1623,trustSTIs,3.0.0b12,59.89038918345733,
M049C,faces/M049C.jpg,6.053175375,Trustworthy,Took a friend out for a beer to celebrate his promotion,supportive,implicit,congruent,,0,32,32,9,,,,,,,,,,,,,,,,,,,,,6,161,2019_Oct_24_1623,trustSTIs,3.0.0b12,59.89038918345733,
M033C,faces/M033C.jpg,4.943548355,Untrustworthy,Was insensitive and insulted a stranger by making a racial slur,insensitive,explicit,congruent,,0,33,33,25,,,,,,,,,,,,,,,,,,,,,6,161,2019_Oct_24_1623,trustSTIs,3.0.0b12,59.89038918345733,
M042C,faces/M042C.jpg,5.596522235,Trustworthy,Was sexist and heckled a woman speaking on human rights,sexist,explicit,incongruent,,0,34,34,8,,,,,,,,,,,,,,,,,,,,,6,161,2019_Oct_24_1623,trustSTIs,3.0.0b12,59.89038918345733,
M031C,faces/M031C.jpg,5.921622915,Trustworthy,Was arrogant and went out of their way to ignore some new coworkers for several weeks,arrogant,explicit,incongruent,,0,35,35,7,,,,,,,,,,,,,,,,,,,,,6,161,2019_Oct_24_1623,trustSTIs,3.0.0b12,59.89038918345733,
,,,,,,,,54 ÷ 9 = ?,,,,,0,0,0,4,,,,,['space'],[14.86128930002451],,,,,,,,,,,6,161,2019_Oct_24_1623,trustSTIs,3.0.0b12,59.89038918345733,
,,,,,,,,169 ÷ 13 = ?,,,,,0,1,1,8,,,,,['space'],[19.78695940040052],,,,,,,,,,,6,161,2019_Oct_24_1623,trustSTIs,3.0.0b12,59.89038918345733,
,,,,,,,,3² = ?,,,,,0,2,2,0,,,,,['space'],[4.625298999249935],,,,,,,,,,,6,161,2019_Oct_24_1623,trustSTIs,3.0.0b12,59.89038918345733,
,,,,,,,,√100 = ?,,,,,0,3,3,3,,,,,['space'],[2.2546571996062994],,,,,,,,,,,6,161,2019_Oct_24_1623,trustSTIs,3.0.0b12,59.89038918345733,
,,,,,,,,6 * 9 = ?,,,,,0,4,4,2,,,,,['space'],[2.1206745002418756],,,,,,,,,,,6,161,2019_Oct_24_1623,trustSTIs,3.0.0b12,59.89038918345733,
,,,,,,,,(5 x 4) - 12 = ?,,,,,0,5,5,9,,,,,['space'],[3.039241999387741],,,,,,,,,,,6,161,2019_Oct_24_1623,trustSTIs,3.0.0b12,59.89038918345733,
,,,,,,,,√49 x 7 = ?,,,,,0,6,6,6,,,,,['space'],[2.371473900973797],,,,,,,,,,,6,161,2019_Oct_24_1623,trustSTIs,3.0.0b12,59.89038918345733,
,,,,,,,,(24 ÷ 3) x 5 = ?,,,,,0,7,7,5,,,,,['space'],[5.209729200229049],,,,,,,,,,,6,161,2019_Oct_24_1623,trustSTIs,3.0.0b12,59.89038918345733,
,,,,,,,,(5 + 7) ÷ 4 = ?,,,,,0,8,8,1,,,,,['space'],[5.226820200681686],,,,,,,,,,,6,161,2019_Oct_24_1623,trustSTIs,3.0.0b12,59.89038918345733,
,,,,,,,,7³ = ?,,,,,0,9,9,7,,,,,['space'],[16.51414910145104],,,,,,,,,,,6,161,2019_Oct_24_1623,trustSTIs,3.0.0b12,59.89038918345733,
M076C,faces/M076C.jpg,4.724042295,Untrustworthy,Paid for a taxi to take an intoxicated man to his residence,cold,mismatch,incongruent,,,,,,,,,,0,0,0,32,,,left,12.824007200077176,,,,,,,,,6,161,2019_Oct_24_1623,trustSTIs,3.0.0b12,59.89038918345733,
M021C,faces/M021C.jpg,4.828377083,Untrustworthy,Cheated on their spouse while on a business trip,kind,mismatch,congruent,,,,,,,,,,0,1,1,22,,,right,4.425120098516345,,,,,,,,,6,161,2019_Oct_24_1623,trustSTIs,3.0.0b12,59.89038918345733,
M020C,faces/M020C.jpg,4.750000023,Untrustworthy,Was very concerned about their personal appearance,heroic,mismatch,congruent,,,,,,,,,,0,2,2,21,,,right,3.1728020012378693,,,,,,,,,6,161,2019_Oct_24_1623,trustSTIs,3.0.0b12,59.89038918345733,
M066C,faces/M066C.jpg,4.707409208,Untrustworthy,Helped a man in a wheelchair cross a busy intersection,caring,implicit,incongruent,,,,,,,,,,0,3,3,28,,,right,1.653642799705267,,,,,,,,,6,161,2019_Oct_24_1623,trustSTIs,3.0.0b12,59.89038918345733,
M067C,faces/M067C.jpg,4.9541331,Untrustworthy,Woke up a woman passed out on the subway and made sure that she got home safely,trustworthy,implicit,incongruent,,,,,,,,,,0,4,4,29,,,left,2.8722521010786295,,,,,,,,,6,161,2019_Oct_24_1623,trustSTIs,3.0.0b12,59.89038918345733,
M087C,faces/M087C.jpg,6.061491925,Trustworthy,Was respectful and held the doors to the subway for an elderly woman with a walker,respectful,explicit,congruent,,,,,,,,,,0,5,5,16,,,left,1.7201199997216463,,,,,,,,,6,161,2019_Oct_24_1623,trustSTIs,3.0.0b12,59.89038918345733,
M077C,faces/M077C.jpg,6.415070475,Trustworthy,Was polite and gave up seat on the bus to a pregnant lady,polite,explicit,congruent,,,,,,,,,,0,6,6,15,,,left,1.9538947008550167,,,,,,,,,6,161,2019_Oct_24_1623,trustSTIs,3.0.0b12,59.89038918345733,
M014C,faces/M014C.jpg,5.649445575,Trustworthy,Ridiculed people behind their backs,reliable,mismatch,incongruent,,,,,,,,,,0,7,7,3,,,right,2.9223199989646673,,,,,,,,,6,161,2019_Oct_24_1623,trustSTIs,3.0.0b12,59.89038918345733,
M033C,faces/M033C.jpg,4.943548355,Untrustworthy,Was insensitive and insulted a stranger by making a racial slur,insensitive,explicit,congruent,,,,,,,,,,0,8,8,25,,,left,3.23962390050292,,,,,,,,,6,161,2019_Oct_24_1623,trustSTIs,3.0.0b12,59.89038918345733,
M071C,faces/M071C.jpg,5.923639075,Trustworthy,Got up early to drive a roommate to the airport,thieving,mismatch,congruent,,,,,,,,,,0,9,9,14,,,right,2.955699300393462,,,,,,,,,6,161,2019_Oct_24_1623,trustSTIs,3.0.0b12,59.89038918345733,
M029C,faces/M029C.jpg,5.814516125,Trustworthy,Was callous and told a racist joke at a party,callous,explicit,incongruent,,,,,,,,,,0,10,10,6,,,left,1.736829498782754,,,,,,,,,6,161,2019_Oct_24_1623,trustSTIs,3.0.0b12,59.89038918345733,
M058C,faces/M058C.jpg,6.1066028,Trustworthy,Paid a friend back the money they owed within only a few days,unfair,mismatch,congruent,,,,,,,,,,0,11,11,12,,,right,1.9872561004012823,,,,,,,,,6,161,2019_Oct_24_1623,trustSTIs,3.0.0b12,59.89038918345733,
M049C,faces/M049C.jpg,6.053175375,Trustworthy,Took a friend out for a beer to celebrate his promotion,supportive,implicit,congruent,,,,,,,,,,0,12,12,9,,,right,1.1858050990849733,,,,,,,,,6,161,2019_Oct_24_1623,trustSTIs,3.0.0b12,59.89038918345733,
M093C,faces/M093C.jpg,6.071068575,Trustworthy,Was dependable and visited a sick friend in the hospital,dependable,explicit,congruent,,,,,,,,,,0,13,13,17,,,right,1.4195454008877277,,,,,,,,,6,161,2019_Oct_24_1623,trustSTIs,3.0.0b12,59.89038918345733,
M092C,faces/M092C.jpg,4.779737903,Untrustworthy,Was compassionate took care of their parent during an illness,compassionate,explicit,incongruent,,,,,,,,,,0,14,14,35,,,left,1.50305650010705,,,,,,,,,6,161,2019_Oct_24_1623,trustSTIs,3.0.0b12,59.89038918345733,
M006C,faces/M006C.jpg,6.0640122,Trustworthy,Attempted to rape a woman who was walking down a dark street,immoral,implicit,incongruent,,,,,,,,,,0,15,15,1,,,left,2.2211237996816635,,,,,,,,,6,161,2019_Oct_24_1623,trustSTIs,3.0.0b12,59.89038918345733,
M022C,faces/M022C.jpg,5.7741936,Trustworthy,Cursed out a co-worker for their incompetence,generous,mismatch,incongruent,,,,,,,,,,0,16,16,4,,,right,1.4028218016028404,,,,,,,,,6,161,2019_Oct_24_1623,trustSTIs,3.0.0b12,59.89038918345733,
M081C,faces/M081C.jpg,4.350806448,Untrustworthy,Was warm and provided food and clothing for flood victims,warm,explicit,incongruent,,,,,,,,,,0,17,17,33,,,right,2.137550400570035,,,,,,,,,6,161,2019_Oct_24_1623,trustSTIs,3.0.0b12,59.89038918345733,
M032C,faces/M032C.jpg,4.74092746,Untrustworthy,Was untrustworthy and stole and used their mother's prescription medication,untrustworthy,explicit,congruent,,,,,,,,,,0,18,18,24,,,left,2.1208951994776726,,,,,,,,,6,161,2019_Oct_24_1623,trustSTIs,3.0.0b12,59.89038918345733,
M017C,faces/M017C.jpg,4.724042335,Untrustworthy,Could not remember the birthdays of their family members,selfish,implicit,congruent,,,,,,,,,,0,19,19,19,,,left,1.85365130007267,,,,,,,,,6,161,2019_Oct_24_1623,trustSTIs,3.0.0b12,59.89038918345733,
M004C,faces/M004C.jpg,6.470262,Trustworthy,Stole money and jewelry from the relatives he was living with,greedy,implicit,incongruent,,,,,,,,,,0,20,20,0,,,left,1.5865286998450756,,,,,,,,,6,161,2019_Oct_24_1623,trustSTIs,3.0.0b12,59.89038918345733,
M019C,faces/M019C.jpg,3.257056473,Untrustworthy,Swore at a cab driver and ran away without paying,mean,implicit,congruent,,,,,,,,,,0,21,21,20,,,right,1.5531431008130312,,,,,,,,,6,161,2019_Oct_24_1623,trustSTIs,3.0.0b12,59.89038918345733,
M086C,faces/M086C.jpg,4.845010075,Untrustworthy,Was honest and returned a lost wallet,honest,explicit,incongruent,,,,,,,,,,0,22,22,34,,,left,1.2358998004347086,,,,,,,,,6,161,2019_Oct_24_1623,trustSTIs,3.0.0b12,59.89038918345733,
M027C,faces/M027C.jpg,4.682963673,Untrustworthy,Ignored a man bleeding on the sidewalk,giving,mismatch,congruent,,,,,,,,,,0,23,23,23,,,right,1.0021246001124382,,,,,,,,,6,161,2019_Oct_24_1623,trustSTIs,3.0.0b12,59.89038918345733,
M008C,faces/M008C.jpg,4.033770203,Untrustworthy,Drove their car the wrong way down a one-way street,careless,implicit,congruent,,,,,,,,,,0,24,24,18,,,left,1.2859845999628305,,,,,,,,,6,161,2019_Oct_24_1623,trustSTIs,3.0.0b12,59.89038918345733,
M042C,faces/M042C.jpg,5.596522235,Trustworthy,Was sexist and heckled a woman speaking on human rights,sexist,explicit,incongruent,,,,,,,,,,0,25,25,8,,,left,1.486319798976183,,,,,,,,,6,161,2019_Oct_24_1623,trustSTIs,3.0.0b12,59.89038918345733,
M050C,faces/M050C.jpg,5.690020225,Trustworthy,Organized a group to renovate some run-down houses,hardworking,implicit,congruent,,,,,,,,,,0,26,26,10,,,right,1.753506800159812,,,,,,,,,6,161,2019_Oct_24_1623,trustSTIs,3.0.0b12,59.89038918345733,
M026C,faces/M026C.jpg,5.823084825,Trustworthy,Took a ten-dollar bill from their roommate's dresser without asking,responsible,mismatch,incongruent,,,,,,,,,,0,27,27,5,,,right,1.66999820061028,,,,,,,,,6,161,2019_Oct_24_1623,trustSTIs,3.0.0b12,59.89038918345733,
M031C,faces/M031C.jpg,5.921622915,Trustworthy,Was arrogant and went out of their way to ignore some new coworkers for several weeks,arrogant,explicit,incongruent,,,,,,,,,,0,28,28,7,,,left,1.4529595002532005,,,,,,,,,6,161,2019_Oct_24_1623,trustSTIs,3.0.0b12,59.89038918345733,
M013C,faces/M013C.jpg,6.035534283,Trustworthy,Pushed a lost child out of their way and ignored her cries for help,cruel,implicit,incongruent,,,,,,,,,,0,29,29,2,,,left,1.619939599186182,,,,,,,,,6,161,2019_Oct_24_1623,trustSTIs,3.0.0b12,59.89038918345733,
M061C,faces/M061C.jpg,4.652721745,Untrustworthy,Volunteered at children's hospital,selfless,implicit,incongruent,,,,,,,,,,0,30,30,27,,,left,1.6032255999743938,,,,,,,,,6,161,2019_Oct_24_1623,trustSTIs,3.0.0b12,59.89038918345733,
M070C,faces/M070C.jpg,4.7144657,Untrustworthy,Saved a person from drowning,vain,mismatch,incongruent,,,,,,,,,,0,31,31,30,,,right,1.06890320032835,,,,,,,,,6,161,2019_Oct_24_1623,trustSTIs,3.0.0b12,59.89038918345733,
M072C,faces/M072C.jpg,4.8732359,Untrustworthy,Helped a lost child find his parents at a mall,dishonest,mismatch,incongruent,,,,,,,,,,0,32,32,31,,,left,1.3694746997207403,,,,,,,,,6,161,2019_Oct_24_1623,trustSTIs,3.0.0b12,59.89038918345733,
M062C,faces/M062C.jpg,5.597530268,Trustworthy,Tutored a struggling classmate for free,demeaning,mismatch,congruent,,,,,,,,,,0,33,33,13,,,left,2.1041382011026144,,,,,,,,,6,161,2019_Oct_24_1623,trustSTIs,3.0.0b12,59.89038918345733,
M037C,faces/M037C.jpg,4.31502017,Untrustworthy,Was cowardly and hit a car and left the scene of the accident,cowardly,explicit,congruent,,,,,,,,,,0,34,34,26,,,right,1.4360774997621775,,,,,,,,,6,161,2019_Oct_24_1623,trustSTIs,3.0.0b12,59.89038918345733,
M051C,faces/M051C.jpg,5.67212695,Trustworthy,Kept the music down for their roommates,attentive,implicit,congruent,,,,,,,,,,0,35,35,11,,,right,1.436267200857401,,,,,,,,,6,161,2019_Oct_24_1623,trustSTIs,3.0.0b12,59.89038918345733,
,,,,,,,,,,,,,,,,,,,,,,,,,21,5.794,,,,,,,6,161,2019_Oct_24_1623,trustSTIs,3.0.0b12,59.89038918345733,
,,,,,,,,,,,,,,,,,,,,,,,,,,,right,4.425439599901438,,,,,6,161,2019_Oct_24_1623,trustSTIs,3.0.0b12,59.89038918345733,
,,,,,,,,,,,,,,,,,,,,,,,,,,,,,left,7.564209800213575,,,6,161,2019_Oct_24_1623,trustSTIs,3.0.0b12,59.89038918345733,
,,,,,,,,,,,,,,,,,,,,,,,,,,,,,,,a,5.276729999110103,6,161,2019_Oct_24_1623,trustSTIs,3.0.0b12,59.89038918345733,
