stimID,face,mDominance,dominance,behavior,trait,trialType,congruence,dist,encodingLoop.thisRepN,encodingLoop.thisTrialN,encodingLoop.thisN,encodingLoop.thisIndex,distLoop.thisRepN,distLoop.thisTrialN,distLoop.thisN,distLoop.thisIndex,recognitionLoop.thisRepN,recognitionLoop.thisTrialN,recognitionLoop.thisN,recognitionLoop.thisIndex,distAnswers.keys,distAnswers.rt,keyResp.keys,keyResp.rt,ageRate.response,ageRate.rt,eflResp.keys,eflResp.rt,genderResp.keys,genderResp.rt,ethResp.keys,ethResp.rt,condition,participant,date,expName,psychopyVersion,frameRate,
M078C,faces/M078C.jpg,3.31552405,Nondominant,Could not win an argument with a coworker,unconvincing,implicit,congruent,,0,0,0,33,,,,,,,,,,,,,,,,,,,,,2,014,2019_Nov_14_0838,trustSTIs,3.0.0b12,59.88938428763922,
M023C,faces/M023C.jpg,5.23991936,Dominant,Was independent and declined to ask for help when solving a difficult problem,independent,explicit,congruent,,0,1,1,4,,,,,,,,,,,,,,,,,,,,,2,014,2019_Nov_14_0838,trustSTIs,3.0.0b12,59.88938428763922,
M069C,faces/M069C.jpg,4.9460686,Dominant,Was passive and decided to avoid an argument out of a fear of losing,passive,explicit,incongruent,,0,2,2,12,,,,,,,,,,,,,,,,,,,,,2,014,2019_Nov_14_0838,trustSTIs,3.0.0b12,59.88938428763922,
M066C,faces/M066C.jpg,3.618447645,Nondominant,Was incompetent and could not finish a simple work project in in time,incompetent,explicit,congruent,,0,3,3,30,,,,,,,,,,,,,,,,,,,,,2,014,2019_Nov_14_0838,trustSTIs,3.0.0b12,59.88938428763922,
M047C,faces/M047C.jpg,3.392641182,Nondominant,Often "checked in" on their children's mental health,outgoing,mismatch,congruent,,0,4,4,28,,,,,,,,,,,,,,,,,,,,,2,014,2019_Nov_14_0838,trustSTIs,3.0.0b12,59.88938428763922,
M021C,faces/M021C.jpg,3.62298385,Nondominant,Was determined and pedaled harder to ensure they won the race,determined,explicit,incongruent,,0,5,5,22,,,,,,,,,,,,,,,,,,,,,2,014,2019_Nov_14_0838,trustSTIs,3.0.0b12,59.88938428763922,
M088C,faces/M088C.jpg,4.727318497,Dominant,Sent money to a Nigerian scammer,gullible,implicit,incongruent,,0,6,6,15,,,,,,,,,,,,,,,,,,,,,2,014,2019_Nov_14_0838,trustSTIs,3.0.0b12,59.88938428763922,
M001C,faces/M001C.jpg,3.061491945,Nondominant,Convinced their group to follow their lead,lazy,mismatch,incongruent,,0,7,7,18,,,,,,,,,,,,,,,,,,,,,2,014,2019_Nov_14_0838,trustSTIs,3.0.0b12,59.88938428763922,
M042C,faces/M042C.jpg,3.357862932,Nondominant,Could not handle criticism without crying,fearless,mismatch,congruent,,0,8,8,27,,,,,,,,,,,,,,,,,,,,,2,014,2019_Nov_14_0838,trustSTIs,3.0.0b12,59.88938428763922,
M022C,faces/M022C.jpg,5.63911285,Dominant,Was assertive and took over their work team when they needed a leader,assertive,explicit,congruent,,0,9,9,3,,,,,,,,,,,,,,,,,,,,,2,014,2019_Nov_14_0838,trustSTIs,3.0.0b12,59.88938428763922,
M074C,faces/M074C.jpg,4.90020156,Dominant,Was conformist and dressed in the same style as all of their friends,conformist,explicit,incongruent,,0,10,10,14,,,,,,,,,,,,,,,,,,,,,2,014,2019_Nov_14_0838,trustSTIs,3.0.0b12,59.88938428763922,
M070C,faces/M070C.jpg,3.235887104,Nondominant,Was weak and could not lift a 50lb bag of cement,weak,explicit,congruent,,0,11,11,31,,,,,,,,,,,,,,,,,,,,,2,014,2019_Nov_14_0838,trustSTIs,3.0.0b12,59.88938428763922,
M036C,faces/M036C.jpg,2.442540253,Nondominant,Spoke five languages and could read three more,competent,implicit,incongruent,,0,12,12,26,,,,,,,,,,,,,,,,,,,,,2,014,2019_Nov_14_0838,trustSTIs,3.0.0b12,59.88938428763922,
M050C,faces/M050C.jpg,4.80090731,Dominant,Scored seven touchdowns in a single game,talented,implicit,congruent,,0,13,13,8,,,,,,,,,,,,,,,,,,,,,2,014,2019_Nov_14_0838,trustSTIs,3.0.0b12,59.88938428763922,
M072C,faces/M072C.jpg,5.269657165,Dominant,Was unsociable and declined to attend a friend's holiday party,unsociable,explicit,incongruent,,0,14,14,13,,,,,,,,,,,,,,,,,,,,,2,014,2019_Nov_14_0838,trustSTIs,3.0.0b12,59.88938428763922,
M090C,faces/M090C.jpg,4.571572515,Dominant,Believed they could build a flying car,foolish,implicit,incongruent,,0,15,15,16,,,,,,,,,,,,,,,,,,,,,2,014,2019_Nov_14_0838,trustSTIs,3.0.0b12,59.88938428763922,
M089C,faces/M089C.jpg,2.621975722,Nondominant,Afraid of being hit by a car when crossing a street,nervous,implicit,congruent,,0,16,16,34,,,,,,,,,,,,,,,,,,,,,2,014,2019_Nov_14_0838,trustSTIs,3.0.0b12,59.88938428763922,
M014C,faces/M014C.jpg,3.179939585,Nondominant,Attended a rally to oppose a bigoted politician,absent-minded,mismatch,incongruent,,0,17,17,20,,,,,,,,,,,,,,,,,,,,,2,014,2019_Nov_14_0838,trustSTIs,3.0.0b12,59.88938428763922,
M054C,faces/M054C.jpg,5.90524195,Dominant,Decided not to complete an assignment,influential,mismatch,incongruent,,0,18,18,9,,,,,,,,,,,,,,,,,,,,,2,014,2019_Nov_14_0838,trustSTIs,3.0.0b12,59.88938428763922,
M016C,faces/M016C.jpg,2.91229845,Nondominant,Was bold and gave a speech in support of a controversial topic,bold,explicit,incongruent,,0,19,19,21,,,,,,,,,,,,,,,,,,,,,2,014,2019_Nov_14_0838,trustSTIs,3.0.0b12,59.88938428763922,
M095C,faces/M095C.jpg,4.7610887,Dominant,Did not want to speak up about their own opinions,soft-spoken,implicit,incongruent,,0,20,20,17,,,,,,,,,,,,,,,,,,,,,2,014,2019_Nov_14_0838,trustSTIs,3.0.0b12,59.88938428763922,
M002C,faces/M002C.jpg,5.85635085,Dominant,Went skydiving without hesitation,oversensitive,mismatch,congruent,,0,21,21,0,,,,,,,,,,,,,,,,,,,,,2,014,2019_Nov_14_0838,trustSTIs,3.0.0b12,59.88938428763922,
M009C,faces/M009C.jpg,5.208669305,Dominant,Introduced himself to everyone at the party,worrying,mismatch,congruent,,0,22,22,1,,,,,,,,,,,,,,,,,,,,,2,014,2019_Nov_14_0838,trustSTIs,3.0.0b12,59.88938428763922,
M067C,faces/M067C.jpg,4.70614921,Dominant,Forgot their spouse's birthday,purposeful,mismatch,incongruent,,0,23,23,11,,,,,,,,,,,,,,,,,,,,,2,014,2019_Nov_14_0838,trustSTIs,3.0.0b12,59.88938428763922,
M062C,faces/M062C.jpg,4.50907254,Dominant,Stood and listened to their boss berate them,dominant,mismatch,incongruent,,0,24,24,10,,,,,,,,,,,,,,,,,,,,,2,014,2019_Nov_14_0838,trustSTIs,3.0.0b12,59.88938428763922,
M027C,faces/M027C.jpg,5.03477819,Dominant,Was productive and completed four work projects in a single week,productive,explicit,congruent,,0,25,25,5,,,,,,,,,,,,,,,,,,,,,2,014,2019_Nov_14_0838,trustSTIs,3.0.0b12,59.88938428763922,
M010C,faces/M010C.jpg,3.430947582,Nondominant,Proclaimed himself their group's leader,submissive,mismatch,incongruent,,0,26,26,19,,,,,,,,,,,,,,,,,,,,,2,014,2019_Nov_14_0838,trustSTIs,3.0.0b12,59.88938428763922,
M092C,faces/M092C.jpg,3.25806462,Nondominant,Could not remember the last time they hung out with a friend,lonely,implicit,congruent,,0,27,27,35,,,,,,,,,,,,,,,,,,,,,2,014,2019_Nov_14_0838,trustSTIs,3.0.0b12,59.88938428763922,
M024C,faces/M024C.jpg,3.67187497,Nondominant,Was proud and believed that they were the most intelligent in their class,proud,explicit,incongruent,,0,28,28,23,,,,,,,,,,,,,,,,,,,,,2,014,2019_Nov_14_0838,trustSTIs,3.0.0b12,59.88938428763922,
M038C,faces/M039C.jpg,5.087197565,Dominant,Was sure of all of their answers on the exam,confident,implicit,congruent,,0,29,29,7,,,,,,,,,,,,,,,,,,,,,2,014,2019_Nov_14_0838,trustSTIs,3.0.0b12,59.88938428763922,
M057C,faces/M057C.jpg,3.348286281,Nondominant,Worried that their friends talked behind their back,smart,mismatch,congruent,,0,30,30,29,,,,,,,,,,,,,,,,,,,,,2,014,2019_Nov_14_0838,trustSTIs,3.0.0b12,59.88938428763922,
M031C,faces/M031C.jpg,2.62550405,Nondominant,Won a debate in record time,persuasive,implicit,incongruent,,0,31,31,24,,,,,,,,,,,,,,,,,,,,,2,014,2019_Nov_14_0838,trustSTIs,3.0.0b12,59.88938428763922,
M030C,faces/M030C.jpg,4.779233991,Dominant,Ordered food for everyone at the dinner table,decisive,implicit,congruent,,0,32,32,6,,,,,,,,,,,,,,,,,,,,,2,014,2019_Nov_14_0838,trustSTIs,3.0.0b12,59.88938428763922,
M017C,faces/M017C.jpg,4.551915335,Dominant,Solved a Rubik's cube in four minutes,anxious,mismatch,congruent,,0,33,33,2,,,,,,,,,,,,,,,,,,,,,2,014,2019_Nov_14_0838,trustSTIs,3.0.0b12,59.88938428763922,
M073C,faces/M073C.jpg,3.661794355,Nondominant,Was quiet and preferred not to speak up during a class discussion,quiet,explicit,congruent,,0,34,34,32,,,,,,,,,,,,,,,,,,,,,2,014,2019_Nov_14_0838,trustSTIs,3.0.0b12,59.88938428763922,
M034C,faces/M034C.jpg,3.175403159,Nondominant,Stood up for their beliefs even when it was unpopular,courageous,implicit,incongruent,,0,35,35,25,,,,,,,,,,,,,,,,,,,,,2,014,2019_Nov_14_0838,trustSTIs,3.0.0b12,59.88938428763922,
,,,,,,,,(5 + 7) ÷ 4 = ?,,,,,0,0,0,1,,,,,['space'],[23.794704699888825],,,,,,,,,,,2,014,2019_Nov_14_0838,trustSTIs,3.0.0b12,59.88938428763922,
,,,,,,,,√100 = ?,,,,,0,1,1,3,,,,,['space'],[4.875769200036302],,,,,,,,,,,2,014,2019_Nov_14_0838,trustSTIs,3.0.0b12,59.88938428763922,
,,,,,,,,√49 x 7 = ?,,,,,0,2,2,6,,,,,['space'],[6.1953193000517786],,,,,,,,,,,2,014,2019_Nov_14_0838,trustSTIs,3.0.0b12,59.88938428763922,
,,,,,,,,7³ = ?,,,,,0,3,3,7,,,,,['space'],[11.070770800113678],,,,,,,,,,,2,014,2019_Nov_14_0838,trustSTIs,3.0.0b12,59.88938428763922,
,,,,,,,,6 * 9 = ?,,,,,0,4,4,2,,,,,['space'],[11.655204199953005],,,,,,,,,,,2,014,2019_Nov_14_0838,trustSTIs,3.0.0b12,59.88938428763922,
,,,,,,,,169 ÷ 13 = ?,,,,,0,5,5,8,,,,,['space'],[4.942581499926746],,,,,,,,,,,2,014,2019_Nov_14_0838,trustSTIs,3.0.0b12,59.88938428763922,
,,,,,,,,(5 x 4) - 12 = ?,,,,,0,6,6,9,,,,,['space'],[4.558908799896017],,,,,,,,,,,2,014,2019_Nov_14_0838,trustSTIs,3.0.0b12,59.88938428763922,
,,,,,,,,3² = ?,,,,,0,7,7,0,,,,,['space'],[3.389680900145322],,,,,,,,,,,2,014,2019_Nov_14_0838,trustSTIs,3.0.0b12,59.88938428763922,
,,,,,,,,54 ÷ 9 = ?,,,,,0,8,8,4,,,,,['space'],[9.084068999858573],,,,,,,,,,,2,014,2019_Nov_14_0838,trustSTIs,3.0.0b12,59.88938428763922,
,,,,,,,,(24 ÷ 3) x 5 = ?,,,,,0,9,9,5,,,,,['space'],[11.070824700174853],,,,,,,,,,,2,014,2019_Nov_14_0838,trustSTIs,3.0.0b12,59.88938428763922,
M072C,faces/M072C.jpg,5.269657165,Dominant,Was unsociable and declined to attend a friend's holiday party,unsociable,explicit,incongruent,,,,,,,,,,0,0,0,13,,,right,6.729408799903467,,,,,,,,,2,014,2019_Nov_14_0838,trustSTIs,3.0.0b12,59.88938428763922,
M024C,faces/M024C.jpg,3.67187497,Nondominant,Was proud and believed that they were the most intelligent in their class,proud,explicit,incongruent,,,,,,,,,,0,1,1,23,,,left,3.957583999959752,,,,,,,,,2,014,2019_Nov_14_0838,trustSTIs,3.0.0b12,59.88938428763922,
M017C,faces/M017C.jpg,4.551915335,Dominant,Solved a Rubik's cube in four minutes,anxious,mismatch,congruent,,,,,,,,,,0,2,2,2,,,right,7.697878600098193,,,,,,,,,2,014,2019_Nov_14_0838,trustSTIs,3.0.0b12,59.88938428763922,
M062C,faces/M062C.jpg,4.50907254,Dominant,Stood and listened to their boss berate them,dominant,mismatch,incongruent,,,,,,,,,,0,3,3,10,,,left,2.60576430009678,,,,,,,,,2,014,2019_Nov_14_0838,trustSTIs,3.0.0b12,59.88938428763922,
M021C,faces/M021C.jpg,3.62298385,Nondominant,Was determined and pedaled harder to ensure they won the race,determined,explicit,incongruent,,,,,,,,,,0,4,4,22,,,right,2.170939699979499,,,,,,,,,2,014,2019_Nov_14_0838,trustSTIs,3.0.0b12,59.88938428763922,
M036C,faces/M036C.jpg,2.442540253,Nondominant,Spoke five languages and could read three more,competent,implicit,incongruent,,,,,,,,,,0,5,5,26,,,left,6.061335500096902,,,,,,,,,2,014,2019_Nov_14_0838,trustSTIs,3.0.0b12,59.88938428763922,
M090C,faces/M090C.jpg,4.571572515,Dominant,Believed they could build a flying car,foolish,implicit,incongruent,,,,,,,,,,0,6,6,16,,,right,1.3694595999550074,,,,,,,,,2,014,2019_Nov_14_0838,trustSTIs,3.0.0b12,59.88938428763922,
M010C,faces/M010C.jpg,3.430947582,Nondominant,Proclaimed himself their group's leader,submissive,mismatch,incongruent,,,,,,,,,,0,7,7,19,,,right,2.939047900028527,,,,,,,,,2,014,2019_Nov_14_0838,trustSTIs,3.0.0b12,59.88938428763922,
M034C,faces/M034C.jpg,3.175403159,Nondominant,Stood up for their beliefs even when it was unpopular,courageous,implicit,incongruent,,,,,,,,,,0,8,8,25,,,left,4.692268799990416,,,,,,,,,2,014,2019_Nov_14_0838,trustSTIs,3.0.0b12,59.88938428763922,
M092C,faces/M092C.jpg,3.25806462,Nondominant,Could not remember the last time they hung out with a friend,lonely,implicit,congruent,,,,,,,,,,0,9,9,35,,,right,5.10972569999285,,,,,,,,,2,014,2019_Nov_14_0838,trustSTIs,3.0.0b12,59.88938428763922,
M074C,faces/M074C.jpg,4.90020156,Dominant,Was conformist and dressed in the same style as all of their friends,conformist,explicit,incongruent,,,,,,,,,,0,10,10,14,,,right,3.3564327000640333,,,,,,,,,2,014,2019_Nov_14_0838,trustSTIs,3.0.0b12,59.88938428763922,
M067C,faces/M067C.jpg,4.70614921,Dominant,Forgot their spouse's birthday,purposeful,mismatch,incongruent,,,,,,,,,,0,11,11,11,,,left,2.0373682000208646,,,,,,,,,2,014,2019_Nov_14_0838,trustSTIs,3.0.0b12,59.88938428763922,
M030C,faces/M030C.jpg,4.779233991,Dominant,Ordered food for everyone at the dinner table,decisive,implicit,congruent,,,,,,,,,,0,12,12,6,,,left,4.592094700084999,,,,,,,,,2,014,2019_Nov_14_0838,trustSTIs,3.0.0b12,59.88938428763922,
M009C,faces/M009C.jpg,5.208669305,Dominant,Introduced himself to everyone at the party,worrying,mismatch,congruent,,,,,,,,,,0,13,13,1,,,right,4.675587999867275,,,,,,,,,2,014,2019_Nov_14_0838,trustSTIs,3.0.0b12,59.88938428763922,
M066C,faces/M066C.jpg,3.618447645,Nondominant,Was incompetent and could not finish a simple work project in in time,incompetent,explicit,congruent,,,,,,,,,,0,14,14,30,,,left,6.712680799886584,,,,,,,,,2,014,2019_Nov_14_0838,trustSTIs,3.0.0b12,59.88938428763922,
M042C,faces/M042C.jpg,3.357862932,Nondominant,Could not handle criticism without crying,fearless,mismatch,congruent,,,,,,,,,,0,15,15,27,,,right,7.8147459998726845,,,,,,,,,2,014,2019_Nov_14_0838,trustSTIs,3.0.0b12,59.88938428763922,
M031C,faces/M031C.jpg,2.62550405,Nondominant,Won a debate in record time,persuasive,implicit,incongruent,,,,,,,,,,0,16,16,24,,,left,9.684874600032344,,,,,,,,,2,014,2019_Nov_14_0838,trustSTIs,3.0.0b12,59.88938428763922,
M088C,faces/M088C.jpg,4.727318497,Dominant,Sent money to a Nigerian scammer,gullible,implicit,incongruent,,,,,,,,,,0,17,17,15,,,right,2.90564229991287,,,,,,,,,2,014,2019_Nov_14_0838,trustSTIs,3.0.0b12,59.88938428763922,
M023C,faces/M023C.jpg,5.23991936,Dominant,Was independent and declined to ask for help when solving a difficult problem,independent,explicit,congruent,,,,,,,,,,0,18,18,4,,,right,2.688568999990821,,,,,,,,,2,014,2019_Nov_14_0838,trustSTIs,3.0.0b12,59.88938428763922,
M095C,faces/M095C.jpg,4.7610887,Dominant,Did not want to speak up about their own opinions,soft-spoken,implicit,incongruent,,,,,,,,,,0,19,19,17,,,right,2.772082399809733,,,,,,,,,2,014,2019_Nov_14_0838,trustSTIs,3.0.0b12,59.88938428763922,
M038C,faces/M039C.jpg,5.087197565,Dominant,Was sure of all of their answers on the exam,confident,implicit,congruent,,,,,,,,,,0,20,20,7,,,right,4.675696500111371,,,,,,,,,2,014,2019_Nov_14_0838,trustSTIs,3.0.0b12,59.88938428763922,
M069C,faces/M069C.jpg,4.9460686,Dominant,Was passive and decided to avoid an argument out of a fear of losing,passive,explicit,incongruent,,,,,,,,,,0,21,21,12,,,left,5.510459000011906,,,,,,,,,2,014,2019_Nov_14_0838,trustSTIs,3.0.0b12,59.88938428763922,
M047C,faces/M047C.jpg,3.392641182,Nondominant,Often "checked in" on their children's mental health,outgoing,mismatch,congruent,,,,,,,,,,0,22,22,28,,,right,2.0206099001225084,,,,,,,,,2,014,2019_Nov_14_0838,trustSTIs,3.0.0b12,59.88938428763922,
M089C,faces/M089C.jpg,2.621975722,Nondominant,Afraid of being hit by a car when crossing a street,nervous,implicit,congruent,,,,,,,,,,0,23,23,34,,,left,2.070878100115806,,,,,,,,,2,014,2019_Nov_14_0838,trustSTIs,3.0.0b12,59.88938428763922,
M078C,faces/M078C.jpg,3.31552405,Nondominant,Could not win an argument with a coworker,unconvincing,implicit,congruent,,,,,,,,,,0,24,24,33,,,right,7.080045900074765,,,,,,,,,2,014,2019_Nov_14_0838,trustSTIs,3.0.0b12,59.88938428763922,
M070C,faces/M070C.jpg,3.235887104,Nondominant,Was weak and could not lift a 50lb bag of cement,weak,explicit,congruent,,,,,,,,,,0,25,25,31,,,right,3.6737287999130785,,,,,,,,,2,014,2019_Nov_14_0838,trustSTIs,3.0.0b12,59.88938428763922,
M014C,faces/M014C.jpg,3.179939585,Nondominant,Attended a rally to oppose a bigoted politician,absent-minded,mismatch,incongruent,,,,,,,,,,0,26,26,20,,,right,2.2210486999247223,,,,,,,,,2,014,2019_Nov_14_0838,trustSTIs,3.0.0b12,59.88938428763922,
M027C,faces/M027C.jpg,5.03477819,Dominant,Was productive and completed four work projects in a single week,productive,explicit,congruent,,,,,,,,,,0,27,27,5,,,right,5.026250499999151,,,,,,,,,2,014,2019_Nov_14_0838,trustSTIs,3.0.0b12,59.88938428763922,
M054C,faces/M054C.jpg,5.90524195,Dominant,Decided not to complete an assignment,influential,mismatch,incongruent,,,,,,,,,,0,28,28,9,,,right,4.842555599985644,,,,,,,,,2,014,2019_Nov_14_0838,trustSTIs,3.0.0b12,59.88938428763922,
M050C,faces/M050C.jpg,4.80090731,Dominant,Scored seven touchdowns in a single game,talented,implicit,congruent,,,,,,,,,,0,29,29,8,,,right,2.5049203000962734,,,,,,,,,2,014,2019_Nov_14_0838,trustSTIs,3.0.0b12,59.88938428763922,
M073C,faces/M073C.jpg,3.661794355,Nondominant,Was quiet and preferred not to speak up during a class discussion,quiet,explicit,congruent,,,,,,,,,,0,30,30,32,,,left,4.8258714999537915,,,,,,,,,2,014,2019_Nov_14_0838,trustSTIs,3.0.0b12,59.88938428763922,
M022C,faces/M022C.jpg,5.63911285,Dominant,Was assertive and took over their work team when they needed a leader,assertive,explicit,congruent,,,,,,,,,,0,31,31,3,,,right,4.74254440004006,,,,,,,,,2,014,2019_Nov_14_0838,trustSTIs,3.0.0b12,59.88938428763922,
M016C,faces/M016C.jpg,2.91229845,Nondominant,Was bold and gave a speech in support of a controversial topic,bold,explicit,incongruent,,,,,,,,,,0,32,32,21,,,right,2.120844200020656,,,,,,,,,2,014,2019_Nov_14_0838,trustSTIs,3.0.0b12,59.88938428763922,
M001C,faces/M001C.jpg,3.061491945,Nondominant,Convinced their group to follow their lead,lazy,mismatch,incongruent,,,,,,,,,,0,33,33,18,,,right,1.870223600184545,,,,,,,,,2,014,2019_Nov_14_0838,trustSTIs,3.0.0b12,59.88938428763922,
M057C,faces/M057C.jpg,3.348286281,Nondominant,Worried that their friends talked behind their back,smart,mismatch,congruent,,,,,,,,,,0,34,34,29,,,right,1.9872743000742048,,,,,,,,,2,014,2019_Nov_14_0838,trustSTIs,3.0.0b12,59.88938428763922,
M002C,faces/M002C.jpg,5.85635085,Dominant,Went skydiving without hesitation,oversensitive,mismatch,congruent,,,,,,,,,,0,35,35,0,,,right,3.1894972000736743,,,,,,,,,2,014,2019_Nov_14_0838,trustSTIs,3.0.0b12,59.88938428763922,
,,,,,,,,,,,,,,,,,,,,,,,,,28,8.499,,,,,,,2,014,2019_Nov_14_0838,trustSTIs,3.0.0b12,59.88938428763922,
,,,,,,,,,,,,,,,,,,,,,,,,,,,left,4.258358600083739,,,,,2,014,2019_Nov_14_0838,trustSTIs,3.0.0b12,59.88938428763922,
,,,,,,,,,,,,,,,,,,,,,,,,,,,,,right,6.879486099816859,,,2,014,2019_Nov_14_0838,trustSTIs,3.0.0b12,59.88938428763922,
,,,,,,,,,,,,,,,,,,,,,,,,,,,,,,,b,16.48080740007572,2,014,2019_Nov_14_0838,trustSTIs,3.0.0b12,59.88938428763922,
