stimID,face,mDominance,dominance,behavior,trait,trialType,congruence,dist,encodingLoop.thisRepN,encodingLoop.thisTrialN,encodingLoop.thisN,encodingLoop.thisIndex,distLoop.thisRepN,distLoop.thisTrialN,distLoop.thisN,distLoop.thisIndex,recognitionLoop.thisRepN,recognitionLoop.thisTrialN,recognitionLoop.thisN,recognitionLoop.thisIndex,distAnswers.keys,distAnswers.rt,keyResp.keys,keyResp.rt,ageRate.response,ageRate.rt,eflResp.keys,eflResp.rt,genderResp.keys,genderResp.rt,ethResp.keys,ethResp.rt,condition,participant,date,expName,psychopyVersion,frameRate,
M066C,faces/M066C.jpg,3.618447645,Nondominant,Took over their work team when they needed a leader,incompetent,mismatch,incongruent,,0,0,0,30,,,,,,,,,,,,,,,,,,,,,6,030,2019_Nov_18_1039,trustSTIs,3.0.0b12,59.885259832945565,
M069C,faces/M069C.jpg,4.9460686,Dominant,Gave a speech in support of a controversial topic,passive,mismatch,congruent,,0,1,1,12,,,,,,,,,,,,,,,,,,,,,6,030,2019_Nov_18_1039,trustSTIs,3.0.0b12,59.885259832945565,
M002C,faces/M002C.jpg,5.85635085,Dominant,Could not handle criticism without crying,oversensitive,implicit,incongruent,,0,2,2,0,,,,,,,,,,,,,,,,,,,,,6,030,2019_Nov_18_1039,trustSTIs,3.0.0b12,59.885259832945565,
M024C,faces/M024C.jpg,3.67187497,Nondominant,Dressed in the same style as all of their friends,proud,mismatch,congruent,,0,3,3,23,,,,,,,,,,,,,,,,,,,,,6,030,2019_Nov_18_1039,trustSTIs,3.0.0b12,59.885259832945565,
M078C,faces/M078C.jpg,3.31552405,Nondominant,Was decisive and ordered food for everyone at the dinner table,decisive,explicit,incongruent,,0,4,4,33,,,,,,,,,,,,,,,,,,,,,6,030,2019_Nov_18_1039,trustSTIs,3.0.0b12,59.885259832945565,
M021C,faces/M021C.jpg,3.62298385,Nondominant,Declined to attend a friend's holiday party,determined,mismatch,congruent,,0,5,5,22,,,,,,,,,,,,,,,,,,,,,6,030,2019_Nov_18_1039,trustSTIs,3.0.0b12,59.885259832945565,
M010C,faces/M010C.jpg,3.430947582,Nondominant,Stood and listened to their boss berate them,submissive,implicit,congruent,,0,6,6,19,,,,,,,,,,,,,,,,,,,,,6,030,2019_Nov_18_1039,trustSTIs,3.0.0b12,59.885259832945565,
M034C,faces/M034C.jpg,3.175403159,Nondominant,Was foolish and believed they could build a flying car,foolish,explicit,congruent,,0,7,7,25,,,,,,,,,,,,,,,,,,,,,6,030,2019_Nov_18_1039,trustSTIs,3.0.0b12,59.885259832945565,
M031C,faces/M031C.jpg,2.62550405,Nondominant,Was gullible and sent money to a Nigerian scammer,gullible,explicit,congruent,,0,8,8,24,,,,,,,,,,,,,,,,,,,,,6,030,2019_Nov_18_1039,trustSTIs,3.0.0b12,59.885259832945565,
M062C,faces/M062C.jpg,4.50907254,Dominant,Proclaimed himself their group's leader,dominant,implicit,congruent,,0,9,9,10,,,,,,,,,,,,,,,,,,,,,6,030,2019_Nov_18_1039,trustSTIs,3.0.0b12,59.885259832945565,
M023C,faces/M023C.jpg,5.23991936,Dominant,Could not lift a 50lb bag of cement,independent,mismatch,incongruent,,0,10,10,4,,,,,,,,,,,,,,,,,,,,,6,030,2019_Nov_18_1039,trustSTIs,3.0.0b12,59.885259832945565,
M047C,faces/M047C.jpg,3.392641182,Nondominant,Introduced himself to everyone at the party,outgoing,implicit,incongruent,,0,11,11,28,,,,,,,,,,,,,,,,,,,,,6,030,2019_Nov_18_1039,trustSTIs,3.0.0b12,59.885259832945565,
M073C,faces/M073C.jpg,3.661794355,Nondominant,Completed four work projects in a single week,quiet,mismatch,incongruent,,0,12,12,32,,,,,,,,,,,,,,,,,,,,,6,030,2019_Nov_18_1039,trustSTIs,3.0.0b12,59.885259832945565,
M030C,faces/M030C.jpg,4.779233991,Dominant,Was unconvincing and could not win an argument with a coworker,unconvincing,explicit,incongruent,,0,13,13,6,,,,,,,,,,,,,,,,,,,,,6,030,2019_Nov_18_1039,trustSTIs,3.0.0b12,59.885259832945565,
M090C,faces/M090C.jpg,4.571572515,Dominant,Was courageous and stood up for their beliefs even when it was unpopular,courageous,explicit,congruent,,0,14,14,16,,,,,,,,,,,,,,,,,,,,,6,030,2019_Nov_18_1039,trustSTIs,3.0.0b12,59.885259832945565,
M027C,faces/M027C.jpg,5.03477819,Dominant,Preferred not to speak up during a class discussion,productive,mismatch,incongruent,,0,15,15,5,,,,,,,,,,,,,,,,,,,,,6,030,2019_Nov_18_1039,trustSTIs,3.0.0b12,59.885259832945565,
M088C,faces/M088C.jpg,4.727318497,Dominant,Was persuasive and won a debate in record time,persuasive,explicit,congruent,,0,16,16,15,,,,,,,,,,,,,,,,,,,,,6,030,2019_Nov_18_1039,trustSTIs,3.0.0b12,59.885259832945565,
M054C,faces/M054C.jpg,5.90524195,Dominant,Convinced their group to follow their lead,influential,implicit,congruent,,0,17,17,9,,,,,,,,,,,,,,,,,,,,,6,030,2019_Nov_18_1039,trustSTIs,3.0.0b12,59.885259832945565,
M014C,faces/M014C.jpg,3.179939585,Nondominant,Forgot their spouse's birthday,absent-minded,implicit,congruent,,0,18,18,20,,,,,,,,,,,,,,,,,,,,,6,030,2019_Nov_18_1039,trustSTIs,3.0.0b12,59.885259832945565,
M016C,faces/M016C.jpg,2.91229845,Nondominant,Decided to avoid an argument out of a fear of losing,bold,mismatch,congruent,,0,19,19,21,,,,,,,,,,,,,,,,,,,,,6,030,2019_Nov_18_1039,trustSTIs,3.0.0b12,59.885259832945565,
M070C,faces/M070C.jpg,3.235887104,Nondominant,Declined to ask for help when solving a difficult problem,weak,mismatch,incongruent,,0,20,20,31,,,,,,,,,,,,,,,,,,,,,6,030,2019_Nov_18_1039,trustSTIs,3.0.0b12,59.885259832945565,
M067C,faces/M067C.jpg,4.70614921,Dominant,Attended a rally to oppose a bigoted politician,purposeful,implicit,congruent,,0,21,21,11,,,,,,,,,,,,,,,,,,,,,6,030,2019_Nov_18_1039,trustSTIs,3.0.0b12,59.885259832945565,
M022C,faces/M022C.jpg,5.63911285,Dominant,Could not finish a simple work project in in time,assertive,mismatch,incongruent,,0,22,22,3,,,,,,,,,,,,,,,,,,,,,6,030,2019_Nov_18_1039,trustSTIs,3.0.0b12,59.885259832945565,
M050C,faces/M050C.jpg,4.80090731,Dominant,Was lonely and could not remember the last time they hung out with a friend,lonely,explicit,incongruent,,0,23,23,8,,,,,,,,,,,,,,,,,,,,,6,030,2019_Nov_18_1039,trustSTIs,3.0.0b12,59.885259832945565,
M095C,faces/M095C.jpg,4.7610887,Dominant,Was competent and spoke five languages and could read three more,competent,explicit,congruent,,0,24,24,17,,,,,,,,,,,,,,,,,,,,,6,030,2019_Nov_18_1039,trustSTIs,3.0.0b12,59.885259832945565,
M009C,faces/M009C.jpg,5.208669305,Dominant,Often "checked in" on their children's mental health,worrying,implicit,incongruent,,0,25,25,1,,,,,,,,,,,,,,,,,,,,,6,030,2019_Nov_18_1039,trustSTIs,3.0.0b12,59.885259832945565,
M072C,faces/M072C.jpg,5.269657165,Dominant,Pedaled harder to ensure they won the race,unsociable,mismatch,congruent,,0,26,26,13,,,,,,,,,,,,,,,,,,,,,6,030,2019_Nov_18_1039,trustSTIs,3.0.0b12,59.885259832945565,
M092C,faces/M092C.jpg,3.25806462,Nondominant,Was talented and scored seven touchdowns in a single game,talented,explicit,incongruent,,0,27,27,35,,,,,,,,,,,,,,,,,,,,,6,030,2019_Nov_18_1039,trustSTIs,3.0.0b12,59.885259832945565,
M057C,faces/M057C.jpg,3.348286281,Nondominant,Solved a Rubik's cube in four minutes,smart,implicit,incongruent,,0,28,28,29,,,,,,,,,,,,,,,,,,,,,6,030,2019_Nov_18_1039,trustSTIs,3.0.0b12,59.885259832945565,
M017C,faces/M017C.jpg,4.551915335,Dominant,Worried that their friends talked behind their back,anxious,implicit,incongruent,,0,29,29,2,,,,,,,,,,,,,,,,,,,,,6,030,2019_Nov_18_1039,trustSTIs,3.0.0b12,59.885259832945565,
M001C,faces/M001C.jpg,3.061491945,Nondominant,Decided not to complete an assignment,lazy,implicit,congruent,,0,30,30,18,,,,,,,,,,,,,,,,,,,,,6,030,2019_Nov_18_1039,trustSTIs,3.0.0b12,59.885259832945565,
M074C,faces/M074C.jpg,4.90020156,Dominant,Believed that they were the most intelligent in their class,conformist,mismatch,congruent,,0,31,31,14,,,,,,,,,,,,,,,,,,,,,6,030,2019_Nov_18_1039,trustSTIs,3.0.0b12,59.885259832945565,
M036C,faces/M036C.jpg,2.442540253,Nondominant,Was soft-spoken and did not want to speak up about their own opinions,soft-spoken,explicit,congruent,,0,32,32,26,,,,,,,,,,,,,,,,,,,,,6,030,2019_Nov_18_1039,trustSTIs,3.0.0b12,59.885259832945565,
M089C,faces/M089C.jpg,2.621975722,Nondominant,Was confident and was sure of all of their answers on the exam,confident,explicit,incongruent,,0,33,33,34,,,,,,,,,,,,,,,,,,,,,6,030,2019_Nov_18_1039,trustSTIs,3.0.0b12,59.885259832945565,
M038C,faces/M039C.jpg,5.087197565,Dominant,Was nervous and was afraid of being hit by a car when crossing a street,nervous,explicit,incongruent,,0,34,34,7,,,,,,,,,,,,,,,,,,,,,6,030,2019_Nov_18_1039,trustSTIs,3.0.0b12,59.885259832945565,
M042C,faces/M042C.jpg,3.357862932,Nondominant,Went skydiving without hesitation,fearless,implicit,incongruent,,0,35,35,27,,,,,,,,,,,,,,,,,,,,,6,030,2019_Nov_18_1039,trustSTIs,3.0.0b12,59.885259832945565,
,,,,,,,,√100 = ?,,,,,0,0,0,3,,,,,['space'],[6.211953200167045],,,,,,,,,,,6,030,2019_Nov_18_1039,trustSTIs,3.0.0b12,59.885259832945565,
,,,,,,,,3² = ?,,,,,0,1,1,0,,,,,['space'],[4.5084013000596315],,,,,,,,,,,6,030,2019_Nov_18_1039,trustSTIs,3.0.0b12,59.885259832945565,
,,,,,,,,7³ = ?,,,,,0,2,2,7,,,,,['space'],[7.39750330010429],,,,,,,,,,,6,030,2019_Nov_18_1039,trustSTIs,3.0.0b12,59.885259832945565,
,,,,,,,,169 ÷ 13 = ?,,,,,0,3,3,8,,,,,['space'],[5.159621000057086],,,,,,,,,,,6,030,2019_Nov_18_1039,trustSTIs,3.0.0b12,59.885259832945565,
,,,,,,,,(24 ÷ 3) x 5 = ?,,,,,0,4,4,5,,,,,['space'],[3.4234726999420673],,,,,,,,,,,6,030,2019_Nov_18_1039,trustSTIs,3.0.0b12,59.885259832945565,
,,,,,,,,(5 + 7) ÷ 4 = ?,,,,,0,5,5,1,,,,,['space'],[5.343298599822447],,,,,,,,,,,6,030,2019_Nov_18_1039,trustSTIs,3.0.0b12,59.885259832945565,
,,,,,,,,√49 x 7 = ?,,,,,0,6,6,6,,,,,['space'],[7.5143975000828505],,,,,,,,,,,6,030,2019_Nov_18_1039,trustSTIs,3.0.0b12,59.885259832945565,
,,,,,,,,6 * 9 = ?,,,,,0,7,7,2,,,,,['space'],[5.861153400037438],,,,,,,,,,,6,030,2019_Nov_18_1039,trustSTIs,3.0.0b12,59.885259832945565,
,,,,,,,,54 ÷ 9 = ?,,,,,0,8,8,4,,,,,['space'],[5.911217499990016],,,,,,,,,,,6,030,2019_Nov_18_1039,trustSTIs,3.0.0b12,59.885259832945565,
,,,,,,,,(5 x 4) - 12 = ?,,,,,0,9,9,9,,,,,['space'],[6.128429800039157],,,,,,,,,,,6,030,2019_Nov_18_1039,trustSTIs,3.0.0b12,59.885259832945565,
M090C,faces/M090C.jpg,4.571572515,Dominant,Was courageous and stood up for their beliefs even when it was unpopular,courageous,explicit,congruent,,,,,,,,,,0,0,0,16,,,left,5.259872700087726,,,,,,,,,6,030,2019_Nov_18_1039,trustSTIs,3.0.0b12,59.885259832945565,
M022C,faces/M022C.jpg,5.63911285,Dominant,Could not finish a simple work project in in time,assertive,mismatch,incongruent,,,,,,,,,,0,1,1,3,,,left,2.9891055000480264,,,,,,,,,6,030,2019_Nov_18_1039,trustSTIs,3.0.0b12,59.885259832945565,
M050C,faces/M050C.jpg,4.80090731,Dominant,Was lonely and could not remember the last time they hung out with a friend,lonely,explicit,incongruent,,,,,,,,,,0,2,2,8,,,right,1.5030305997934192,,,,,,,,,6,030,2019_Nov_18_1039,trustSTIs,3.0.0b12,59.885259832945565,
M095C,faces/M095C.jpg,4.7610887,Dominant,Was competent and spoke five languages and could read three more,competent,explicit,congruent,,,,,,,,,,0,3,3,17,,,left,2.671857099980116,,,,,,,,,6,030,2019_Nov_18_1039,trustSTIs,3.0.0b12,59.885259832945565,
M031C,faces/M031C.jpg,2.62550405,Nondominant,Was gullible and sent money to a Nigerian scammer,gullible,explicit,congruent,,,,,,,,,,0,4,4,24,,,right,2.755349899875,,,,,,,,,6,030,2019_Nov_18_1039,trustSTIs,3.0.0b12,59.885259832945565,
M014C,faces/M014C.jpg,3.179939585,Nondominant,Forgot their spouse's birthday,absent-minded,implicit,congruent,,,,,,,,,,0,5,5,20,,,left,5.042899099877104,,,,,,,,,6,030,2019_Nov_18_1039,trustSTIs,3.0.0b12,59.885259832945565,
M024C,faces/M024C.jpg,3.67187497,Nondominant,Dressed in the same style as all of their friends,proud,mismatch,congruent,,,,,,,,,,0,6,6,23,,,right,1.770209199981764,,,,,,,,,6,030,2019_Nov_18_1039,trustSTIs,3.0.0b12,59.885259832945565,
M088C,faces/M088C.jpg,4.727318497,Dominant,Was persuasive and won a debate in record time,persuasive,explicit,congruent,,,,,,,,,,0,7,7,15,,,right,1.6867188999895006,,,,,,,,,6,030,2019_Nov_18_1039,trustSTIs,3.0.0b12,59.885259832945565,
M016C,faces/M016C.jpg,2.91229845,Nondominant,Decided to avoid an argument out of a fear of losing,bold,mismatch,congruent,,,,,,,,,,0,8,8,21,,,right,3.139411199837923,,,,,,,,,6,030,2019_Nov_18_1039,trustSTIs,3.0.0b12,59.885259832945565,
M023C,faces/M023C.jpg,5.23991936,Dominant,Could not lift a 50lb bag of cement,independent,mismatch,incongruent,,,,,,,,,,0,9,9,4,,,left,3.2732166000641882,,,,,,,,,6,030,2019_Nov_18_1039,trustSTIs,3.0.0b12,59.885259832945565,
M021C,faces/M021C.jpg,3.62298385,Nondominant,Declined to attend a friend's holiday party,determined,mismatch,congruent,,,,,,,,,,0,10,10,22,,,right,1.8369583000894636,,,,,,,,,6,030,2019_Nov_18_1039,trustSTIs,3.0.0b12,59.885259832945565,
M054C,faces/M054C.jpg,5.90524195,Dominant,Convinced their group to follow their lead,influential,implicit,congruent,,,,,,,,,,0,11,11,9,,,left,2.5883907000534236,,,,,,,,,6,030,2019_Nov_18_1039,trustSTIs,3.0.0b12,59.885259832945565,
M030C,faces/M030C.jpg,4.779233991,Dominant,Was unconvincing and could not win an argument with a coworker,unconvincing,explicit,incongruent,,,,,,,,,,0,12,12,6,,,left,1.4696722000371665,,,,,,,,,6,030,2019_Nov_18_1039,trustSTIs,3.0.0b12,59.885259832945565,
M067C,faces/M067C.jpg,4.70614921,Dominant,Attended a rally to oppose a bigoted politician,purposeful,implicit,congruent,,,,,,,,,,0,13,13,11,,,right,1.7368260999210179,,,,,,,,,6,030,2019_Nov_18_1039,trustSTIs,3.0.0b12,59.885259832945565,
M001C,faces/M001C.jpg,3.061491945,Nondominant,Decided not to complete an assignment,lazy,implicit,congruent,,,,,,,,,,0,14,14,18,,,right,2.588388799922541,,,,,,,,,6,030,2019_Nov_18_1039,trustSTIs,3.0.0b12,59.885259832945565,
M027C,faces/M027C.jpg,5.03477819,Dominant,Preferred not to speak up during a class discussion,productive,mismatch,incongruent,,,,,,,,,,0,15,15,5,,,right,2.8388816001825035,,,,,,,,,6,030,2019_Nov_18_1039,trustSTIs,3.0.0b12,59.885259832945565,
M066C,faces/M066C.jpg,3.618447645,Nondominant,Took over their work team when they needed a leader,incompetent,mismatch,incongruent,,,,,,,,,,0,16,16,30,,,right,7.530908399960026,,,,,,,,,6,030,2019_Nov_18_1039,trustSTIs,3.0.0b12,59.885259832945565,
M017C,faces/M017C.jpg,4.551915335,Dominant,Worried that their friends talked behind their back,anxious,implicit,incongruent,,,,,,,,,,0,17,17,2,,,left,1.2191197001375258,,,,,,,,,6,030,2019_Nov_18_1039,trustSTIs,3.0.0b12,59.885259832945565,
M089C,faces/M089C.jpg,2.621975722,Nondominant,Was confident and was sure of all of their answers on the exam,confident,explicit,incongruent,,,,,,,,,,0,18,18,34,,,right,2.5382855001371354,,,,,,,,,6,030,2019_Nov_18_1039,trustSTIs,3.0.0b12,59.885259832945565,
M042C,faces/M042C.jpg,3.357862932,Nondominant,Went skydiving without hesitation,fearless,implicit,incongruent,,,,,,,,,,0,19,19,27,,,right,1.436212600208819,,,,,,,,,6,030,2019_Nov_18_1039,trustSTIs,3.0.0b12,59.885259832945565,
M072C,faces/M072C.jpg,5.269657165,Dominant,Pedaled harder to ensure they won the race,unsociable,mismatch,congruent,,,,,,,,,,0,20,20,13,,,right,1.8369881000835449,,,,,,,,,6,030,2019_Nov_18_1039,trustSTIs,3.0.0b12,59.885259832945565,
M038C,faces/M039C.jpg,5.087197565,Dominant,Was nervous and was afraid of being hit by a car when crossing a street,nervous,explicit,incongruent,,,,,,,,,,0,21,21,7,,,right,1.6867377001326531,,,,,,,,,6,030,2019_Nov_18_1039,trustSTIs,3.0.0b12,59.885259832945565,
M034C,faces/M034C.jpg,3.175403159,Nondominant,Was foolish and believed they could build a flying car,foolish,explicit,congruent,,,,,,,,,,0,22,22,25,,,right,2.2209995000157505,,,,,,,,,6,030,2019_Nov_18_1039,trustSTIs,3.0.0b12,59.885259832945565,
M036C,faces/M036C.jpg,2.442540253,Nondominant,Was soft-spoken and did not want to speak up about their own opinions,soft-spoken,explicit,congruent,,,,,,,,,,0,23,23,26,,,left,1.3358961998019367,,,,,,,,,6,030,2019_Nov_18_1039,trustSTIs,3.0.0b12,59.885259832945565,
M010C,faces/M010C.jpg,3.430947582,Nondominant,Stood and listened to their boss berate them,submissive,implicit,congruent,,,,,,,,,,0,24,24,19,,,left,2.3045286999549717,,,,,,,,,6,030,2019_Nov_18_1039,trustSTIs,3.0.0b12,59.885259832945565,
M057C,faces/M057C.jpg,3.348286281,Nondominant,Solved a Rubik's cube in four minutes,smart,implicit,incongruent,,,,,,,,,,0,25,25,29,,,right,1.0688983998261392,,,,,,,,,6,030,2019_Nov_18_1039,trustSTIs,3.0.0b12,59.885259832945565,
M062C,faces/M062C.jpg,4.50907254,Dominant,Proclaimed himself their group's leader,dominant,implicit,congruent,,,,,,,,,,0,26,26,10,,,right,2.2210093000903726,,,,,,,,,6,030,2019_Nov_18_1039,trustSTIs,3.0.0b12,59.885259832945565,
M092C,faces/M092C.jpg,3.25806462,Nondominant,Was talented and scored seven touchdowns in a single game,talented,explicit,incongruent,,,,,,,,,,0,27,27,35,,,right,1.419559400063008,,,,,,,,,6,030,2019_Nov_18_1039,trustSTIs,3.0.0b12,59.885259832945565,
M074C,faces/M074C.jpg,4.90020156,Dominant,Believed that they were the most intelligent in their class,conformist,mismatch,congruent,,,,,,,,,,0,28,28,14,,,right,1.7368145999498665,,,,,,,,,6,030,2019_Nov_18_1039,trustSTIs,3.0.0b12,59.885259832945565,
M069C,faces/M069C.jpg,4.9460686,Dominant,Gave a speech in support of a controversial topic,passive,mismatch,congruent,,,,,,,,,,0,29,29,12,,,right,2.120846299920231,,,,,,,,,6,030,2019_Nov_18_1039,trustSTIs,3.0.0b12,59.885259832945565,
M070C,faces/M070C.jpg,3.235887104,Nondominant,Declined to ask for help when solving a difficult problem,weak,mismatch,incongruent,,,,,,,,,,0,30,30,31,,,right,1.7535147999878973,,,,,,,,,6,030,2019_Nov_18_1039,trustSTIs,3.0.0b12,59.885259832945565,
M009C,faces/M009C.jpg,5.208669305,Dominant,Often "checked in" on their children's mental health,worrying,implicit,incongruent,,,,,,,,,,0,31,31,1,,,left,1.4694827999919653,,,,,,,,,6,030,2019_Nov_18_1039,trustSTIs,3.0.0b12,59.885259832945565,
M002C,faces/M002C.jpg,5.85635085,Dominant,Could not handle criticism without crying,oversensitive,implicit,incongruent,,,,,,,,,,0,32,32,0,,,right,2.0874361000023782,,,,,,,,,6,030,2019_Nov_18_1039,trustSTIs,3.0.0b12,59.885259832945565,
M073C,faces/M073C.jpg,3.661794355,Nondominant,Completed four work projects in a single week,quiet,mismatch,incongruent,,,,,,,,,,0,33,33,32,,,right,2.4379437000025064,,,,,,,,,6,030,2019_Nov_18_1039,trustSTIs,3.0.0b12,59.885259832945565,
M078C,faces/M078C.jpg,3.31552405,Nondominant,Was decisive and ordered food for everyone at the dinner table,decisive,explicit,incongruent,,,,,,,,,,0,34,34,33,,,left,3.5401600000914186,,,,,,,,,6,030,2019_Nov_18_1039,trustSTIs,3.0.0b12,59.885259832945565,
M047C,faces/M047C.jpg,3.392641182,Nondominant,Introduced himself to everyone at the party,outgoing,implicit,incongruent,,,,,,,,,,0,35,35,28,,,left,1.3694431001786143,,,,,,,,,6,030,2019_Nov_18_1039,trustSTIs,3.0.0b12,59.885259832945565,
,,,,,,,,,,,,,,,,,,,,,,,,,18,10.269,,,,,,,6,030,2019_Nov_18_1039,trustSTIs,3.0.0b12,59.885259832945565,
,,,,,,,,,,,,,,,,,,,,,,,,,,,right,5.109922900097445,,,,,6,030,2019_Nov_18_1039,trustSTIs,3.0.0b12,59.885259832945565,
,,,,,,,,,,,,,,,,,,,,,,,,,,,,,left,6.862960400059819,,,6,030,2019_Nov_18_1039,trustSTIs,3.0.0b12,59.885259832945565,
,,,,,,,,,,,,,,,,,,,,,,,,,,,,,,,a,4.157966699916869,6,030,2019_Nov_18_1039,trustSTIs,3.0.0b12,59.885259832945565,
