stimID,face,mDominance,dominance,behavior,trait,trialType,congruence,dist,encodingLoop.thisRepN,encodingLoop.thisTrialN,encodingLoop.thisN,encodingLoop.thisIndex,distLoop.thisRepN,distLoop.thisTrialN,distLoop.thisN,distLoop.thisIndex,recognitionLoop.thisRepN,recognitionLoop.thisTrialN,recognitionLoop.thisN,recognitionLoop.thisIndex,distAnswers.keys,distAnswers.rt,keyResp.keys,keyResp.rt,ageRate.response,ageRate.rt,eflResp.keys,eflResp.rt,genderResp.keys,genderResp.rt,ethResp.keys,ethResp.rt,condition,participant,date,expName,psychopyVersion,frameRate,
M022C,faces/M022C.jpg,5.63911285,Dominant,Took over their work team when they needed a leader,incompetent,mismatch,congruent,,0,0,0,3,,,,,,,,,,,,,,,,,,,,,3,033,2019_Nov_18_1201,trustSTIs,3.0.0b12,59.924662670622546,
M042C,faces/M042C.jpg,3.357862932,Nondominant,Could not handle criticism without crying,oversensitive,implicit,congruent,,0,1,1,27,,,,,,,,,,,,,,,,,,,,,3,033,2019_Nov_18_1201,trustSTIs,3.0.0b12,59.924662670622546,
M089C,faces/M089C.jpg,2.621975722,Nondominant,Was nervous and was afraid of being hit by a car when crossing a street,nervous,explicit,congruent,,0,2,2,34,,,,,,,,,,,,,,,,,,,,,3,033,2019_Nov_18_1201,trustSTIs,3.0.0b12,59.924662670622546,
M072C,faces/M072C.jpg,5.269657165,Dominant,Declined to attend a friend's holiday party,determined,mismatch,incongruent,,0,3,3,13,,,,,,,,,,,,,,,,,,,,,3,033,2019_Nov_18_1201,trustSTIs,3.0.0b12,59.924662670622546,
M092C,faces/M092C.jpg,3.25806462,Nondominant,Was lonely and could not remember the last time they hung out with a friend,lonely,explicit,congruent,,0,4,4,35,,,,,,,,,,,,,,,,,,,,,3,033,2019_Nov_18_1201,trustSTIs,3.0.0b12,59.924662670622546,
M073C,faces/M073C.jpg,3.661794355,Nondominant,Preferred not to speak up during a class discussion,productive,mismatch,congruent,,0,5,5,32,,,,,,,,,,,,,,,,,,,,,3,033,2019_Nov_18_1201,trustSTIs,3.0.0b12,59.924662670622546,
M021C,faces/M021C.jpg,3.62298385,Nondominant,Pedaled harder to ensure they won the race,unsociable,mismatch,incongruent,,0,6,6,22,,,,,,,,,,,,,,,,,,,,,3,033,2019_Nov_18_1201,trustSTIs,3.0.0b12,59.924662670622546,
M062C,faces/M062C.jpg,4.50907254,Dominant,Stood and listened to their boss berate them,submissive,implicit,incongruent,,0,7,7,10,,,,,,,,,,,,,,,,,,,,,3,033,2019_Nov_18_1201,trustSTIs,3.0.0b12,59.924662670622546,
M024C,faces/M024C.jpg,3.67187497,Nondominant,Believed that they were the most intelligent in their class,conformist,mismatch,incongruent,,0,8,8,23,,,,,,,,,,,,,,,,,,,,,3,033,2019_Nov_18_1201,trustSTIs,3.0.0b12,59.924662670622546,
M070C,faces/M070C.jpg,3.235887104,Nondominant,Could not lift a 50lb bag of cement,independent,mismatch,congruent,,0,9,9,31,,,,,,,,,,,,,,,,,,,,,3,033,2019_Nov_18_1201,trustSTIs,3.0.0b12,59.924662670622546,
M057C,faces/M057C.jpg,3.348286281,Nondominant,Worried that their friends talked behind their back,anxious,implicit,congruent,,0,10,10,29,,,,,,,,,,,,,,,,,,,,,3,033,2019_Nov_18_1201,trustSTIs,3.0.0b12,59.924662670622546,
M002C,faces/M002C.jpg,5.85635085,Dominant,Went skydiving without hesitation,fearless,implicit,congruent,,0,11,11,0,,,,,,,,,,,,,,,,,,,,,3,033,2019_Nov_18_1201,trustSTIs,3.0.0b12,59.924662670622546,
M078C,faces/M078C.jpg,3.31552405,Nondominant,Was unconvincing and could not win an argument with a coworker,unconvincing,explicit,congruent,,0,12,12,33,,,,,,,,,,,,,,,,,,,,,3,033,2019_Nov_18_1201,trustSTIs,3.0.0b12,59.924662670622546,
M014C,faces/M014C.jpg,3.179939585,Nondominant,Attended a rally to oppose a bigoted politician,purposeful,implicit,incongruent,,0,13,13,20,,,,,,,,,,,,,,,,,,,,,3,033,2019_Nov_18_1201,trustSTIs,3.0.0b12,59.924662670622546,
M066C,faces/M066C.jpg,3.618447645,Nondominant,Could not finish a simple work project in in time,assertive,mismatch,congruent,,0,14,14,30,,,,,,,,,,,,,,,,,,,,,3,033,2019_Nov_18_1201,trustSTIs,3.0.0b12,59.924662670622546,
M054C,faces/M054C.jpg,5.90524195,Dominant,Decided not to complete an assignment,lazy,implicit,incongruent,,0,15,15,9,,,,,,,,,,,,,,,,,,,,,3,033,2019_Nov_18_1201,trustSTIs,3.0.0b12,59.924662670622546,
M017C,faces/M017C.jpg,4.551915335,Dominant,Solved a Rubik's cube in four minutes,smart,implicit,congruent,,0,16,16,2,,,,,,,,,,,,,,,,,,,,,3,033,2019_Nov_18_1201,trustSTIs,3.0.0b12,59.924662670622546,
M027C,faces/M027C.jpg,5.03477819,Dominant,Completed four work projects in a single week,quiet,mismatch,congruent,,0,17,17,5,,,,,,,,,,,,,,,,,,,,,3,033,2019_Nov_18_1201,trustSTIs,3.0.0b12,59.924662670622546,
M009C,faces/M009C.jpg,5.208669305,Dominant,Introduced himself to everyone at the party,outgoing,implicit,congruent,,0,18,18,1,,,,,,,,,,,,,,,,,,,,,3,033,2019_Nov_18_1201,trustSTIs,3.0.0b12,59.924662670622546,
M001C,faces/M001C.jpg,3.061491945,Nondominant,Convinced their group to follow their lead,influential,implicit,incongruent,,0,19,19,18,,,,,,,,,,,,,,,,,,,,,3,033,2019_Nov_18_1201,trustSTIs,3.0.0b12,59.924662670622546,
M016C,faces/M016C.jpg,2.91229845,Nondominant,Gave a speech in support of a controversial topic,passive,mismatch,incongruent,,0,20,20,21,,,,,,,,,,,,,,,,,,,,,3,033,2019_Nov_18_1201,trustSTIs,3.0.0b12,59.924662670622546,
M090C,faces/M090C.jpg,4.571572515,Dominant,Was foolish and believed they could build a flying car,foolish,explicit,incongruent,,0,21,21,16,,,,,,,,,,,,,,,,,,,,,3,033,2019_Nov_18_1201,trustSTIs,3.0.0b12,59.924662670622546,
M047C,faces/M047C.jpg,3.392641182,Nondominant,Often "checked in" on their children's mental health,worrying,implicit,congruent,,0,22,22,28,,,,,,,,,,,,,,,,,,,,,3,033,2019_Nov_18_1201,trustSTIs,3.0.0b12,59.924662670622546,
M067C,faces/M067C.jpg,4.70614921,Dominant,Forgot their spouse's birthday,absent-minded,implicit,incongruent,,0,23,23,11,,,,,,,,,,,,,,,,,,,,,3,033,2019_Nov_18_1201,trustSTIs,3.0.0b12,59.924662670622546,
M069C,faces/M069C.jpg,4.9460686,Dominant,Decided to avoid an argument out of a fear of losing,bold,mismatch,incongruent,,0,24,24,12,,,,,,,,,,,,,,,,,,,,,3,033,2019_Nov_18_1201,trustSTIs,3.0.0b12,59.924662670622546,
M088C,faces/M088C.jpg,4.727318497,Dominant,Was gullible and sent money to a Nigerian scammer,gullible,explicit,incongruent,,0,25,25,15,,,,,,,,,,,,,,,,,,,,,3,033,2019_Nov_18_1201,trustSTIs,3.0.0b12,59.924662670622546,
M023C,faces/M023C.jpg,5.23991936,Dominant,Declined to ask for help when solving a difficult problem,weak,mismatch,congruent,,0,26,26,4,,,,,,,,,,,,,,,,,,,,,3,033,2019_Nov_18_1201,trustSTIs,3.0.0b12,59.924662670622546,
M034C,faces/M034C.jpg,3.175403159,Nondominant,Was courageous and stood up for their beliefs even when it was unpopular,courageous,explicit,incongruent,,0,27,27,25,,,,,,,,,,,,,,,,,,,,,3,033,2019_Nov_18_1201,trustSTIs,3.0.0b12,59.924662670622546,
M010C,faces/M010C.jpg,3.430947582,Nondominant,Proclaimed himself their group's leader,dominant,implicit,incongruent,,0,28,28,19,,,,,,,,,,,,,,,,,,,,,3,033,2019_Nov_18_1201,trustSTIs,3.0.0b12,59.924662670622546,
M031C,faces/M031C.jpg,2.62550405,Nondominant,Was persuasive and won a debate in record time,persuasive,explicit,incongruent,,0,29,29,24,,,,,,,,,,,,,,,,,,,,,3,033,2019_Nov_18_1201,trustSTIs,3.0.0b12,59.924662670622546,
M074C,faces/M074C.jpg,4.90020156,Dominant,Dressed in the same style as all of their friends,proud,mismatch,incongruent,,0,30,30,14,,,,,,,,,,,,,,,,,,,,,3,033,2019_Nov_18_1201,trustSTIs,3.0.0b12,59.924662670622546,
M036C,faces/M036C.jpg,2.442540253,Nondominant,Was competent and spoke five languages and could read three more,competent,explicit,incongruent,,0,31,31,26,,,,,,,,,,,,,,,,,,,,,3,033,2019_Nov_18_1201,trustSTIs,3.0.0b12,59.924662670622546,
M095C,faces/M095C.jpg,4.7610887,Dominant,Was soft-spoken and did not want to speak up about their own opinions,soft-spoken,explicit,incongruent,,0,32,32,17,,,,,,,,,,,,,,,,,,,,,3,033,2019_Nov_18_1201,trustSTIs,3.0.0b12,59.924662670622546,
M050C,faces/M050C.jpg,4.80090731,Dominant,Was talented and scored seven touchdowns in a single game,talented,explicit,congruent,,0,33,33,8,,,,,,,,,,,,,,,,,,,,,3,033,2019_Nov_18_1201,trustSTIs,3.0.0b12,59.924662670622546,
M038C,faces/M039C.jpg,5.087197565,Dominant,Was confident and was sure of all of their answers on the exam,confident,explicit,congruent,,0,34,34,7,,,,,,,,,,,,,,,,,,,,,3,033,2019_Nov_18_1201,trustSTIs,3.0.0b12,59.924662670622546,
M030C,faces/M030C.jpg,4.779233991,Dominant,Was decisive and ordered food for everyone at the dinner table,decisive,explicit,congruent,,0,35,35,6,,,,,,,,,,,,,,,,,,,,,3,033,2019_Nov_18_1201,trustSTIs,3.0.0b12,59.924662670622546,
,,,,,,,,(24 ÷ 3) x 5 = ?,,,,,0,0,0,5,,,,,['space'],[15.16166240000166],,,,,,,,,,,3,033,2019_Nov_18_1201,trustSTIs,3.0.0b12,59.924662670622546,
,,,,,,,,6 * 9 = ?,,,,,0,1,1,2,,,,,['space'],[11.822403899859637],,,,,,,,,,,3,033,2019_Nov_18_1201,trustSTIs,3.0.0b12,59.924662670622546,
,,,,,,,,54 ÷ 9 = ?,,,,,0,2,2,4,,,,,['space'],[10.70344840013422],,,,,,,,,,,3,033,2019_Nov_18_1201,trustSTIs,3.0.0b12,59.924662670622546,
,,,,,,,,√49 x 7 = ?,,,,,0,3,3,6,,,,,['space'],[11.905655599897727],,,,,,,,,,,3,033,2019_Nov_18_1201,trustSTIs,3.0.0b12,59.924662670622546,
,,,,,,,,7³ = ?,,,,,0,4,4,7,,,,,['space'],[14.293092699954286],,,,,,,,,,,3,033,2019_Nov_18_1201,trustSTIs,3.0.0b12,59.924662670622546,
,,,,,,,,(5 + 7) ÷ 4 = ?,,,,,0,5,5,1,,,,,['space'],[10.67025540000759],,,,,,,,,,,3,033,2019_Nov_18_1201,trustSTIs,3.0.0b12,59.924662670622546,
,,,,,,,,169 ÷ 13 = ?,,,,,0,6,6,8,,,,,['space'],[13.642361999955028],,,,,,,,,,,3,033,2019_Nov_18_1201,trustSTIs,3.0.0b12,59.924662670622546,
,,,,,,,,3² = ?,,,,,0,7,7,0,,,,,['space'],[12.272798199905083],,,,,,,,,,,3,033,2019_Nov_18_1201,trustSTIs,3.0.0b12,59.924662670622546,
,,,,,,,,(5 x 4) - 12 = ?,,,,,0,8,8,9,,,,,['space'],[10.570166300050914],,,,,,,,,,,3,033,2019_Nov_18_1201,trustSTIs,3.0.0b12,59.924662670622546,
,,,,,,,,√100 = ?,,,,,0,9,9,3,,,,,['space'],[11.888823500135913],,,,,,,,,,,3,033,2019_Nov_18_1201,trustSTIs,3.0.0b12,59.924662670622546,
M092C,faces/M092C.jpg,3.25806462,Nondominant,Was lonely and could not remember the last time they hung out with a friend,lonely,explicit,congruent,,,,,,,,,,0,0,0,35,,,right,5.330151100177318,,,,,,,,,3,033,2019_Nov_18_1201,trustSTIs,3.0.0b12,59.924662670622546,
M017C,faces/M017C.jpg,4.551915335,Dominant,Solved a Rubik's cube in four minutes,smart,implicit,congruent,,,,,,,,,,0,1,1,2,,,left,2.82214910001494,,,,,,,,,3,033,2019_Nov_18_1201,trustSTIs,3.0.0b12,59.924662670622546,
M034C,faces/M034C.jpg,3.175403159,Nondominant,Was courageous and stood up for their beliefs even when it was unpopular,courageous,explicit,incongruent,,,,,,,,,,0,2,2,25,,,right,2.2878392001148313,,,,,,,,,3,033,2019_Nov_18_1201,trustSTIs,3.0.0b12,59.924662670622546,
M024C,faces/M024C.jpg,3.67187497,Nondominant,Believed that they were the most intelligent in their class,conformist,mismatch,incongruent,,,,,,,,,,0,3,3,23,,,right,4.491912299999967,,,,,,,,,3,033,2019_Nov_18_1201,trustSTIs,3.0.0b12,59.924662670622546,
M001C,faces/M001C.jpg,3.061491945,Nondominant,Convinced their group to follow their lead,influential,implicit,incongruent,,,,,,,,,,0,4,4,18,,,right,1.8870842000469565,,,,,,,,,3,033,2019_Nov_18_1201,trustSTIs,3.0.0b12,59.924662670622546,
M023C,faces/M023C.jpg,5.23991936,Dominant,Declined to ask for help when solving a difficult problem,weak,mismatch,congruent,,,,,,,,,,0,5,5,4,,,right,1.5865541000384837,,,,,,,,,3,033,2019_Nov_18_1201,trustSTIs,3.0.0b12,59.924662670622546,
M036C,faces/M036C.jpg,2.442540253,Nondominant,Was competent and spoke five languages and could read three more,competent,explicit,incongruent,,,,,,,,,,0,6,6,26,,,left,1.4194763000123203,,,,,,,,,3,033,2019_Nov_18_1201,trustSTIs,3.0.0b12,59.924662670622546,
M067C,faces/M067C.jpg,4.70614921,Dominant,Forgot their spouse's birthday,absent-minded,implicit,incongruent,,,,,,,,,,0,7,7,11,,,left,1.2357069998979568,,,,,,,,,3,033,2019_Nov_18_1201,trustSTIs,3.0.0b12,59.924662670622546,
M050C,faces/M050C.jpg,4.80090731,Dominant,Was talented and scored seven touchdowns in a single game,talented,explicit,congruent,,,,,,,,,,0,8,8,8,,,left,1.7201081002131104,,,,,,,,,3,033,2019_Nov_18_1201,trustSTIs,3.0.0b12,59.924662670622546,
M047C,faces/M047C.jpg,3.392641182,Nondominant,Often "checked in" on their children's mental health,worrying,implicit,congruent,,,,,,,,,,0,9,9,28,,,left,1.5531021000351757,,,,,,,,,3,033,2019_Nov_18_1201,trustSTIs,3.0.0b12,59.924662670622546,
M042C,faces/M042C.jpg,3.357862932,Nondominant,Could not handle criticism without crying,oversensitive,implicit,congruent,,,,,,,,,,0,10,10,27,,,left,1.1357996000442654,,,,,,,,,3,033,2019_Nov_18_1201,trustSTIs,3.0.0b12,59.924662670622546,
M022C,faces/M022C.jpg,5.63911285,Dominant,Took over their work team when they needed a leader,incompetent,mismatch,congruent,,,,,,,,,,0,11,11,3,,,left,2.3212613998912275,,,,,,,,,3,033,2019_Nov_18_1201,trustSTIs,3.0.0b12,59.924662670622546,
M030C,faces/M030C.jpg,4.779233991,Dominant,Was decisive and ordered food for everyone at the dinner table,decisive,explicit,congruent,,,,,,,,,,0,12,12,6,,,right,1.5531290001235902,,,,,,,,,3,033,2019_Nov_18_1201,trustSTIs,3.0.0b12,59.924662670622546,
M062C,faces/M062C.jpg,4.50907254,Dominant,Stood and listened to their boss berate them,submissive,implicit,incongruent,,,,,,,,,,0,13,13,10,,,left,1.2024985998868942,,,,,,,,,3,033,2019_Nov_18_1201,trustSTIs,3.0.0b12,59.924662670622546,
M066C,faces/M066C.jpg,3.618447645,Nondominant,Could not finish a simple work project in in time,assertive,mismatch,congruent,,,,,,,,,,0,14,14,30,,,right,1.185788600007072,,,,,,,,,3,033,2019_Nov_18_1201,trustSTIs,3.0.0b12,59.924662670622546,
M072C,faces/M072C.jpg,5.269657165,Dominant,Declined to attend a friend's holiday party,determined,mismatch,incongruent,,,,,,,,,,0,15,15,13,,,right,1.1026852999348193,,,,,,,,,3,033,2019_Nov_18_1201,trustSTIs,3.0.0b12,59.924662670622546,
M027C,faces/M027C.jpg,5.03477819,Dominant,Completed four work projects in a single week,quiet,mismatch,congruent,,,,,,,,,,0,16,16,5,,,left,1.0188147998414934,,,,,,,,,3,033,2019_Nov_18_1201,trustSTIs,3.0.0b12,59.924662670622546,
M016C,faces/M016C.jpg,2.91229845,Nondominant,Gave a speech in support of a controversial topic,passive,mismatch,incongruent,,,,,,,,,,0,17,17,21,,,left,2.0039973999373615,,,,,,,,,3,033,2019_Nov_18_1201,trustSTIs,3.0.0b12,59.924662670622546,
M070C,faces/M070C.jpg,3.235887104,Nondominant,Could not lift a 50lb bag of cement,independent,mismatch,congruent,,,,,,,,,,0,18,18,31,,,left,2.8221595000941306,,,,,,,,,3,033,2019_Nov_18_1201,trustSTIs,3.0.0b12,59.924662670622546,
M089C,faces/M089C.jpg,2.621975722,Nondominant,Was nervous and was afraid of being hit by a car when crossing a street,nervous,explicit,congruent,,,,,,,,,,0,19,19,34,,,left,1.7535490000154823,,,,,,,,,3,033,2019_Nov_18_1201,trustSTIs,3.0.0b12,59.924662670622546,
M010C,faces/M010C.jpg,3.430947582,Nondominant,Proclaimed himself their group's leader,dominant,implicit,incongruent,,,,,,,,,,0,20,20,19,,,right,1.4529384998604655,,,,,,,,,3,033,2019_Nov_18_1201,trustSTIs,3.0.0b12,59.924662670622546,
M057C,faces/M057C.jpg,3.348286281,Nondominant,Worried that their friends talked behind their back,anxious,implicit,congruent,,,,,,,,,,0,21,21,29,,,left,1.5028496000450104,,,,,,,,,3,033,2019_Nov_18_1201,trustSTIs,3.0.0b12,59.924662670622546,
M031C,faces/M031C.jpg,2.62550405,Nondominant,Was persuasive and won a debate in record time,persuasive,explicit,incongruent,,,,,,,,,,0,22,22,24,,,right,1.0855898999143392,,,,,,,,,3,033,2019_Nov_18_1201,trustSTIs,3.0.0b12,59.924662670622546,
M054C,faces/M054C.jpg,5.90524195,Dominant,Decided not to complete an assignment,lazy,implicit,incongruent,,,,,,,,,,0,23,23,9,,,right,3.256406700005755,,,,,,,,,3,033,2019_Nov_18_1201,trustSTIs,3.0.0b12,59.924662670622546,
M090C,faces/M090C.jpg,4.571572515,Dominant,Was foolish and believed they could build a flying car,foolish,explicit,incongruent,,,,,,,,,,0,24,24,16,,,right,1.0021631999406964,,,,,,,,,3,033,2019_Nov_18_1201,trustSTIs,3.0.0b12,59.924662670622546,
M078C,faces/M078C.jpg,3.31552405,Nondominant,Was unconvincing and could not win an argument with a coworker,unconvincing,explicit,congruent,,,,,,,,,,0,25,25,33,,,left,1.0355058000423014,,,,,,,,,3,033,2019_Nov_18_1201,trustSTIs,3.0.0b12,59.924662670622546,
M074C,faces/M074C.jpg,4.90020156,Dominant,Dressed in the same style as all of their friends,proud,mismatch,incongruent,,,,,,,,,,0,26,26,14,,,right,0.918642999837175,,,,,,,,,3,033,2019_Nov_18_1201,trustSTIs,3.0.0b12,59.924662670622546,
M088C,faces/M088C.jpg,4.727318497,Dominant,Was gullible and sent money to a Nigerian scammer,gullible,explicit,incongruent,,,,,,,,,,0,27,27,15,,,left,1.1356653000693768,,,,,,,,,3,033,2019_Nov_18_1201,trustSTIs,3.0.0b12,59.924662670622546,
M073C,faces/M073C.jpg,3.661794355,Nondominant,Preferred not to speak up during a class discussion,productive,mismatch,congruent,,,,,,,,,,0,28,28,32,,,right,0.9017790998332202,,,,,,,,,3,033,2019_Nov_18_1201,trustSTIs,3.0.0b12,59.924662670622546,
M038C,faces/M039C.jpg,5.087197565,Dominant,Was confident and was sure of all of their answers on the exam,confident,explicit,congruent,,,,,,,,,,0,29,29,7,,,left,8.065194600028917,,,,,,,,,3,033,2019_Nov_18_1201,trustSTIs,3.0.0b12,59.924662670622546,
M095C,faces/M095C.jpg,4.7610887,Dominant,Was soft-spoken and did not want to speak up about their own opinions,soft-spoken,explicit,incongruent,,,,,,,,,,0,30,30,17,,,right,0.7850442000199109,,,,,,,,,3,033,2019_Nov_18_1201,trustSTIs,3.0.0b12,59.924662670622546,
M002C,faces/M002C.jpg,5.85635085,Dominant,Went skydiving without hesitation,fearless,implicit,congruent,,,,,,,,,,0,31,31,0,,,left,1.4029662001412362,,,,,,,,,3,033,2019_Nov_18_1201,trustSTIs,3.0.0b12,59.924662670622546,
M014C,faces/M014C.jpg,3.179939585,Nondominant,Attended a rally to oppose a bigoted politician,purposeful,implicit,incongruent,,,,,,,,,,0,32,32,20,,,left,1.4363712000194937,,,,,,,,,3,033,2019_Nov_18_1201,trustSTIs,3.0.0b12,59.924662670622546,
M069C,faces/M069C.jpg,4.9460686,Dominant,Decided to avoid an argument out of a fear of losing,bold,mismatch,incongruent,,,,,,,,,,0,33,33,12,,,right,0.8852721001021564,,,,,,,,,3,033,2019_Nov_18_1201,trustSTIs,3.0.0b12,59.924662670622546,
M021C,faces/M021C.jpg,3.62298385,Nondominant,Pedaled harder to ensure they won the race,unsociable,mismatch,incongruent,,,,,,,,,,0,34,34,22,,,left,1.1022688001394272,,,,,,,,,3,033,2019_Nov_18_1201,trustSTIs,3.0.0b12,59.924662670622546,
M009C,faces/M009C.jpg,5.208669305,Dominant,Introduced himself to everyone at the party,outgoing,implicit,congruent,,,,,,,,,,0,35,35,1,,,right,1.352756000123918,,,,,,,,,3,033,2019_Nov_18_1201,trustSTIs,3.0.0b12,59.924662670622546,
,,,,,,,,,,,,,,,,,,,,,,,,,18,4.408,,,,,,,3,033,2019_Nov_18_1201,trustSTIs,3.0.0b12,59.924662670622546,
,,,,,,,,,,,,,,,,,,,,,,,,,,,left,4.391948699951172,,,,,3,033,2019_Nov_18_1201,trustSTIs,3.0.0b12,59.924662670622546,
,,,,,,,,,,,,,,,,,,,,,,,,,,,,,left,5.543985500000417,,,3,033,2019_Nov_18_1201,trustSTIs,3.0.0b12,59.924662670622546,
,,,,,,,,,,,,,,,,,,,,,,,,,,,,,,,a,4.441843699896708,3,033,2019_Nov_18_1201,trustSTIs,3.0.0b12,59.924662670622546,
