stimID,face,mDominance,dominance,behavior,trait,trialType,congruence,dist,encodingLoop.thisRepN,encodingLoop.thisTrialN,encodingLoop.thisN,encodingLoop.thisIndex,distLoop.thisRepN,distLoop.thisTrialN,distLoop.thisN,distLoop.thisIndex,recognitionLoop.thisRepN,recognitionLoop.thisTrialN,recognitionLoop.thisN,recognitionLoop.thisIndex,distAnswers.keys,distAnswers.rt,keyResp.keys,keyResp.rt,ageRate.response,ageRate.rt,eflResp.keys,eflResp.rt,genderResp.keys,genderResp.rt,ethResp.keys,ethResp.rt,condition,participant,date,expName,psychopyVersion,frameRate,
M070C,faces/M070C.jpg,3.235887104,Nondominant,Declined to ask for help when solving a difficult problem,independent,implicit,incongruent,,0,0,0,31,,,,,,,,,,,,,,,,,,,,,4,034,2019_Nov_18_1216,trustSTIs,3.0.0b12,59.89053207464797,
M038C,faces/M039C.jpg,5.087197565,Dominant,Afraid of being hit by a car when crossing a street,confident,mismatch,incongruent,,0,1,1,7,,,,,,,,,,,,,,,,,,,,,4,034,2019_Nov_18_1216,trustSTIs,3.0.0b12,59.89053207464797,
M017C,faces/M017C.jpg,4.551915335,Dominant,Was anxious and worried that their friends talked behind their back,anxious,explicit,incongruent,,0,2,2,2,,,,,,,,,,,,,,,,,,,,,4,034,2019_Nov_18_1216,trustSTIs,3.0.0b12,59.89053207464797,
M074C,faces/M074C.jpg,4.90020156,Dominant,Believed that they were the most intelligent in their class,proud,implicit,congruent,,0,3,3,14,,,,,,,,,,,,,,,,,,,,,4,034,2019_Nov_18_1216,trustSTIs,3.0.0b12,59.89053207464797,
M062C,faces/M062C.jpg,4.50907254,Dominant,Was dominant and proclaimed himself their group's leader,dominant,explicit,congruent,,0,4,4,10,,,,,,,,,,,,,,,,,,,,,4,034,2019_Nov_18_1216,trustSTIs,3.0.0b12,59.89053207464797,
M078C,faces/M078C.jpg,3.31552405,Nondominant,Ordered food for everyone at the dinner table,unconvincing,mismatch,incongruent,,0,5,5,33,,,,,,,,,,,,,,,,,,,,,4,034,2019_Nov_18_1216,trustSTIs,3.0.0b12,59.89053207464797,
M066C,faces/M066C.jpg,3.618447645,Nondominant,Took over their work team when they needed a leader,assertive,implicit,incongruent,,0,6,6,30,,,,,,,,,,,,,,,,,,,,,4,034,2019_Nov_18_1216,trustSTIs,3.0.0b12,59.89053207464797,
M022C,faces/M022C.jpg,5.63911285,Dominant,Could not finish a simple work project in in time,incompetent,implicit,incongruent,,0,7,7,3,,,,,,,,,,,,,,,,,,,,,4,034,2019_Nov_18_1216,trustSTIs,3.0.0b12,59.89053207464797,
M016C,faces/M016C.jpg,2.91229845,Nondominant,Decided to avoid an argument out of a fear of losing,passive,implicit,congruent,,0,8,8,21,,,,,,,,,,,,,,,,,,,,,4,034,2019_Nov_18_1216,trustSTIs,3.0.0b12,59.89053207464797,
M073C,faces/M073C.jpg,3.661794355,Nondominant,Completed four work projects in a single week,productive,implicit,incongruent,,0,9,9,32,,,,,,,,,,,,,,,,,,,,,4,034,2019_Nov_18_1216,trustSTIs,3.0.0b12,59.89053207464797,
M050C,faces/M050C.jpg,4.80090731,Dominant,Could not remember the last time they hung out with a friend,talented,mismatch,incongruent,,0,10,10,8,,,,,,,,,,,,,,,,,,,,,4,034,2019_Nov_18_1216,trustSTIs,3.0.0b12,59.89053207464797,
M057C,faces/M057C.jpg,3.348286281,Nondominant,Was smart and solved a Rubik's cube in four minutes,smart,explicit,incongruent,,0,11,11,29,,,,,,,,,,,,,,,,,,,,,4,034,2019_Nov_18_1216,trustSTIs,3.0.0b12,59.89053207464797,
M088C,faces/M088C.jpg,4.727318497,Dominant,Won a debate in record time,gullible,mismatch,congruent,,0,12,12,15,,,,,,,,,,,,,,,,,,,,,4,034,2019_Nov_18_1216,trustSTIs,3.0.0b12,59.89053207464797,
M054C,faces/M054C.jpg,5.90524195,Dominant,Was influential and convinced their group to follow their lead,influential,explicit,congruent,,0,13,13,9,,,,,,,,,,,,,,,,,,,,,4,034,2019_Nov_18_1216,trustSTIs,3.0.0b12,59.89053207464797,
M014C,faces/M014C.jpg,3.179939585,Nondominant,Was absent-minded and forgot their spouse's birthday,absent-minded,explicit,congruent,,0,14,14,20,,,,,,,,,,,,,,,,,,,,,4,034,2019_Nov_18_1216,trustSTIs,3.0.0b12,59.89053207464797,
M047C,faces/M047C.jpg,3.392641182,Nondominant,Was outgoing and introduced himself to everyone at the party,outgoing,explicit,incongruent,,0,15,15,28,,,,,,,,,,,,,,,,,,,,,4,034,2019_Nov_18_1216,trustSTIs,3.0.0b12,59.89053207464797,
M031C,faces/M031C.jpg,2.62550405,Nondominant,Sent money to a Nigerian scammer,persuasive,mismatch,congruent,,0,16,16,24,,,,,,,,,,,,,,,,,,,,,4,034,2019_Nov_18_1216,trustSTIs,3.0.0b12,59.89053207464797,
M090C,faces/M090C.jpg,4.571572515,Dominant,Stood up for their beliefs even when it was unpopular,foolish,mismatch,congruent,,0,17,17,16,,,,,,,,,,,,,,,,,,,,,4,034,2019_Nov_18_1216,trustSTIs,3.0.0b12,59.89053207464797,
M030C,faces/M030C.jpg,4.779233991,Dominant,Could not win an argument with a coworker,decisive,mismatch,incongruent,,0,18,18,6,,,,,,,,,,,,,,,,,,,,,4,034,2019_Nov_18_1216,trustSTIs,3.0.0b12,59.89053207464797,
M095C,faces/M095C.jpg,4.7610887,Dominant,Spoke five languages and could read three more,soft-spoken,mismatch,congruent,,0,19,19,17,,,,,,,,,,,,,,,,,,,,,4,034,2019_Nov_18_1216,trustSTIs,3.0.0b12,59.89053207464797,
M001C,faces/M001C.jpg,3.061491945,Nondominant,Was lazy and decided not to complete an assignment,lazy,explicit,congruent,,0,20,20,18,,,,,,,,,,,,,,,,,,,,,4,034,2019_Nov_18_1216,trustSTIs,3.0.0b12,59.89053207464797,
M036C,faces/M036C.jpg,2.442540253,Nondominant,Did not want to speak up about their own opinions,competent,mismatch,congruent,,0,21,21,26,,,,,,,,,,,,,,,,,,,,,4,034,2019_Nov_18_1216,trustSTIs,3.0.0b12,59.89053207464797,
M023C,faces/M023C.jpg,5.23991936,Dominant,Could not lift a 50lb bag of cement,weak,implicit,incongruent,,0,22,22,4,,,,,,,,,,,,,,,,,,,,,4,034,2019_Nov_18_1216,trustSTIs,3.0.0b12,59.89053207464797,
M002C,faces/M002C.jpg,5.85635085,Dominant,Was oversensitive and could not handle criticism without crying,oversensitive,explicit,incongruent,,0,23,23,0,,,,,,,,,,,,,,,,,,,,,4,034,2019_Nov_18_1216,trustSTIs,3.0.0b12,59.89053207464797,
M089C,faces/M089C.jpg,2.621975722,Nondominant,Was sure of all of their answers on the exam,nervous,mismatch,incongruent,,0,24,24,34,,,,,,,,,,,,,,,,,,,,,4,034,2019_Nov_18_1216,trustSTIs,3.0.0b12,59.89053207464797,
M042C,faces/M042C.jpg,3.357862932,Nondominant,Was fearless and went skydiving without hesitation,fearless,explicit,incongruent,,0,25,25,27,,,,,,,,,,,,,,,,,,,,,4,034,2019_Nov_18_1216,trustSTIs,3.0.0b12,59.89053207464797,
M067C,faces/M067C.jpg,4.70614921,Dominant,Was purposeeful and attended a rally to oppose a bigoted politician,purposeful,explicit,congruent,,0,26,26,11,,,,,,,,,,,,,,,,,,,,,4,034,2019_Nov_18_1216,trustSTIs,3.0.0b12,59.89053207464797,
M072C,faces/M072C.jpg,5.269657165,Dominant,Pedaled harder to ensure they won the race,determined,implicit,congruent,,0,27,27,13,,,,,,,,,,,,,,,,,,,,,4,034,2019_Nov_18_1216,trustSTIs,3.0.0b12,59.89053207464797,
M024C,faces/M024C.jpg,3.67187497,Nondominant,Dressed in the same style as all of their friends,conformist,implicit,congruent,,0,28,28,23,,,,,,,,,,,,,,,,,,,,,4,034,2019_Nov_18_1216,trustSTIs,3.0.0b12,59.89053207464797,
M092C,faces/M092C.jpg,3.25806462,Nondominant,Scored seven touchdowns in a single game,lonely,mismatch,incongruent,,0,29,29,35,,,,,,,,,,,,,,,,,,,,,4,034,2019_Nov_18_1216,trustSTIs,3.0.0b12,59.89053207464797,
M021C,faces/M021C.jpg,3.62298385,Nondominant,Declined to attend a friend's holiday party,unsociable,implicit,congruent,,0,30,30,22,,,,,,,,,,,,,,,,,,,,,4,034,2019_Nov_18_1216,trustSTIs,3.0.0b12,59.89053207464797,
M069C,faces/M069C.jpg,4.9460686,Dominant,Gave a speech in support of a controversial topic,bold,implicit,congruent,,0,31,31,12,,,,,,,,,,,,,,,,,,,,,4,034,2019_Nov_18_1216,trustSTIs,3.0.0b12,59.89053207464797,
M010C,faces/M010C.jpg,3.430947582,Nondominant,Was submissive and stood and listened to their boss berate them,submissive,explicit,congruent,,0,32,32,19,,,,,,,,,,,,,,,,,,,,,4,034,2019_Nov_18_1216,trustSTIs,3.0.0b12,59.89053207464797,
M009C,faces/M009C.jpg,5.208669305,Dominant,Was worrying and often "checked in" on their children's mental health,worrying,explicit,incongruent,,0,33,33,1,,,,,,,,,,,,,,,,,,,,,4,034,2019_Nov_18_1216,trustSTIs,3.0.0b12,59.89053207464797,
M027C,faces/M027C.jpg,5.03477819,Dominant,Preferred not to speak up during a class discussion,quiet,implicit,incongruent,,0,34,34,5,,,,,,,,,,,,,,,,,,,,,4,034,2019_Nov_18_1216,trustSTIs,3.0.0b12,59.89053207464797,
M034C,faces/M034C.jpg,3.175403159,Nondominant,Believed they could build a flying car,courageous,mismatch,congruent,,0,35,35,25,,,,,,,,,,,,,,,,,,,,,4,034,2019_Nov_18_1216,trustSTIs,3.0.0b12,59.89053207464797,
,,,,,,,,√100 = ?,,,,,0,0,0,3,,,,,['space'],[20.35484420019202],,,,,,,,,,,4,034,2019_Nov_18_1216,trustSTIs,3.0.0b12,59.89053207464797,
,,,,,,,,(5 x 4) - 12 = ?,,,,,0,1,1,9,,,,,['space'],[4.207875599851832],,,,,,,,,,,4,034,2019_Nov_18_1216,trustSTIs,3.0.0b12,59.89053207464797,
,,,,,,,,√49 x 7 = ?,,,,,0,2,2,6,,,,,['space'],[8.599588799988851],,,,,,,,,,,4,034,2019_Nov_18_1216,trustSTIs,3.0.0b12,59.89053207464797,
,,,,,,,,7³ = ?,,,,,0,3,3,7,,,,,['space'],[11.855397599982098],,,,,,,,,,,4,034,2019_Nov_18_1216,trustSTIs,3.0.0b12,59.89053207464797,
,,,,,,,,(24 ÷ 3) x 5 = ?,,,,,0,4,4,5,,,,,['space'],[9.183992699952796],,,,,,,,,,,4,034,2019_Nov_18_1216,trustSTIs,3.0.0b12,59.89053207464797,
,,,,,,,,54 ÷ 9 = ?,,,,,0,5,5,4,,,,,['space'],[15.044799600029364],,,,,,,,,,,4,034,2019_Nov_18_1216,trustSTIs,3.0.0b12,59.89053207464797,
,,,,,,,,169 ÷ 13 = ?,,,,,0,6,6,8,,,,,['space'],[11.588411200093105],,,,,,,,,,,4,034,2019_Nov_18_1216,trustSTIs,3.0.0b12,59.89053207464797,
,,,,,,,,6 * 9 = ?,,,,,0,7,7,2,,,,,['space'],[4.808964299969375],,,,,,,,,,,4,034,2019_Nov_18_1216,trustSTIs,3.0.0b12,59.89053207464797,
,,,,,,,,3² = ?,,,,,0,8,8,0,,,,,['space'],[1.7703733001835644],,,,,,,,,,,4,034,2019_Nov_18_1216,trustSTIs,3.0.0b12,59.89053207464797,
,,,,,,,,(5 + 7) ÷ 4 = ?,,,,,0,9,9,1,,,,,['space'],[5.1763166999444366],,,,,,,,,,,4,034,2019_Nov_18_1216,trustSTIs,3.0.0b12,59.89053207464797,
M036C,faces/M036C.jpg,2.442540253,Nondominant,Did not want to speak up about their own opinions,competent,mismatch,congruent,,,,,,,,,,0,0,0,26,,,right,3.5067576998844743,,,,,,,,,4,034,2019_Nov_18_1216,trustSTIs,3.0.0b12,59.89053207464797,
M066C,faces/M066C.jpg,3.618447645,Nondominant,Took over their work team when they needed a leader,assertive,implicit,incongruent,,,,,,,,,,0,1,1,30,,,right,3.490068799816072,,,,,,,,,4,034,2019_Nov_18_1216,trustSTIs,3.0.0b12,59.89053207464797,
M078C,faces/M078C.jpg,3.31552405,Nondominant,Ordered food for everyone at the dinner table,unconvincing,mismatch,incongruent,,,,,,,,,,0,2,2,33,,,right,3.1393988002091646,,,,,,,,,4,034,2019_Nov_18_1216,trustSTIs,3.0.0b12,59.89053207464797,
M001C,faces/M001C.jpg,3.061491945,Nondominant,Was lazy and decided not to complete an assignment,lazy,explicit,congruent,,,,,,,,,,0,3,3,18,,,left,1.6533129001036286,,,,,,,,,4,034,2019_Nov_18_1216,trustSTIs,3.0.0b12,59.89053207464797,
M057C,faces/M057C.jpg,3.348286281,Nondominant,Was smart and solved a Rubik's cube in four minutes,smart,explicit,incongruent,,,,,,,,,,0,4,4,29,,,left,2.3379191998392344,,,,,,,,,4,034,2019_Nov_18_1216,trustSTIs,3.0.0b12,59.89053207464797,
M030C,faces/M030C.jpg,4.779233991,Dominant,Could not win an argument with a coworker,decisive,mismatch,incongruent,,,,,,,,,,0,5,5,6,,,left,1.7534976999741048,,,,,,,,,4,034,2019_Nov_18_1216,trustSTIs,3.0.0b12,59.89053207464797,
M062C,faces/M062C.jpg,4.50907254,Dominant,Was dominant and proclaimed himself their group's leader,dominant,explicit,congruent,,,,,,,,,,0,6,6,10,,,left,4.64218939980492,,,,,,,,,4,034,2019_Nov_18_1216,trustSTIs,3.0.0b12,59.89053207464797,
M042C,faces/M042C.jpg,3.357862932,Nondominant,Was fearless and went skydiving without hesitation,fearless,explicit,incongruent,,,,,,,,,,0,7,7,27,,,right,1.820284300018102,,,,,,,,,4,034,2019_Nov_18_1216,trustSTIs,3.0.0b12,59.89053207464797,
M092C,faces/M092C.jpg,3.25806462,Nondominant,Scored seven touchdowns in a single game,lonely,mismatch,incongruent,,,,,,,,,,0,8,8,35,,,left,2.6050847000442445,,,,,,,,,4,034,2019_Nov_18_1216,trustSTIs,3.0.0b12,59.89053207464797,
M088C,faces/M088C.jpg,4.727318497,Dominant,Won a debate in record time,gullible,mismatch,congruent,,,,,,,,,,0,9,9,15,,,right,2.6551842000335455,,,,,,,,,4,034,2019_Nov_18_1216,trustSTIs,3.0.0b12,59.89053207464797,
M010C,faces/M010C.jpg,3.430947582,Nondominant,Was submissive and stood and listened to their boss berate them,submissive,explicit,congruent,,,,,,,,,,0,10,10,19,,,left,1.686721600126475,,,,,,,,,4,034,2019_Nov_18_1216,trustSTIs,3.0.0b12,59.89053207464797,
M017C,faces/M017C.jpg,4.551915335,Dominant,Was anxious and worried that their friends talked behind their back,anxious,explicit,incongruent,,,,,,,,,,0,11,11,2,,,left,3.289518800098449,,,,,,,,,4,034,2019_Nov_18_1216,trustSTIs,3.0.0b12,59.89053207464797,
M070C,faces/M070C.jpg,3.235887104,Nondominant,Declined to ask for help when solving a difficult problem,independent,implicit,incongruent,,,,,,,,,,0,12,12,31,,,right,2.4548355999868363,,,,,,,,,4,034,2019_Nov_18_1216,trustSTIs,3.0.0b12,59.89053207464797,
M089C,faces/M089C.jpg,2.621975722,Nondominant,Was sure of all of their answers on the exam,nervous,mismatch,incongruent,,,,,,,,,,0,13,13,34,,,left,1.8369996999390423,,,,,,,,,4,034,2019_Nov_18_1216,trustSTIs,3.0.0b12,59.89053207464797,
M047C,faces/M047C.jpg,3.392641182,Nondominant,Was outgoing and introduced himself to everyone at the party,outgoing,explicit,incongruent,,,,,,,,,,0,14,14,28,,,left,3.773927199887112,,,,,,,,,4,034,2019_Nov_18_1216,trustSTIs,3.0.0b12,59.89053207464797,
M038C,faces/M039C.jpg,5.087197565,Dominant,Afraid of being hit by a car when crossing a street,confident,mismatch,incongruent,,,,,,,,,,0,15,15,7,,,left,2.6551783999893814,,,,,,,,,4,034,2019_Nov_18_1216,trustSTIs,3.0.0b12,59.89053207464797,
M023C,faces/M023C.jpg,5.23991936,Dominant,Could not lift a 50lb bag of cement,weak,implicit,incongruent,,,,,,,,,,0,16,16,4,,,left,2.388032600050792,,,,,,,,,4,034,2019_Nov_18_1216,trustSTIs,3.0.0b12,59.89053207464797,
M073C,faces/M073C.jpg,3.661794355,Nondominant,Completed four work projects in a single week,productive,implicit,incongruent,,,,,,,,,,0,17,17,32,,,right,2.772080200025812,,,,,,,,,4,034,2019_Nov_18_1216,trustSTIs,3.0.0b12,59.89053207464797,
M090C,faces/M090C.jpg,4.571572515,Dominant,Stood up for their beliefs even when it was unpopular,foolish,mismatch,congruent,,,,,,,,,,0,18,18,16,,,left,10.252589500043541,,,,,,,,,4,034,2019_Nov_18_1216,trustSTIs,3.0.0b12,59.89053207464797,
M016C,faces/M016C.jpg,2.91229845,Nondominant,Decided to avoid an argument out of a fear of losing,passive,implicit,congruent,,,,,,,,,,0,19,19,21,,,right,7.163510800106451,,,,,,,,,4,034,2019_Nov_18_1216,trustSTIs,3.0.0b12,59.89053207464797,
M095C,faces/M095C.jpg,4.7610887,Dominant,Spoke five languages and could read three more,soft-spoken,mismatch,congruent,,,,,,,,,,0,20,20,17,,,right,4.05778030003421,,,,,,,,,4,034,2019_Nov_18_1216,trustSTIs,3.0.0b12,59.89053207464797,
M067C,faces/M067C.jpg,4.70614921,Dominant,Was purposeeful and attended a rally to oppose a bigoted politician,purposeful,explicit,congruent,,,,,,,,,,0,21,21,11,,,right,5.460333899827674,,,,,,,,,4,034,2019_Nov_18_1216,trustSTIs,3.0.0b12,59.89053207464797,
M024C,faces/M024C.jpg,3.67187497,Nondominant,Dressed in the same style as all of their friends,conformist,implicit,congruent,,,,,,,,,,0,22,22,23,,,left,4.0076985999476165,,,,,,,,,4,034,2019_Nov_18_1216,trustSTIs,3.0.0b12,59.89053207464797,
M050C,faces/M050C.jpg,4.80090731,Dominant,Could not remember the last time they hung out with a friend,talented,mismatch,incongruent,,,,,,,,,,0,23,23,8,,,right,4.759053299902007,,,,,,,,,4,034,2019_Nov_18_1216,trustSTIs,3.0.0b12,59.89053207464797,
M031C,faces/M031C.jpg,2.62550405,Nondominant,Sent money to a Nigerian scammer,persuasive,mismatch,congruent,,,,,,,,,,0,24,24,24,,,right,4.141223500017077,,,,,,,,,4,034,2019_Nov_18_1216,trustSTIs,3.0.0b12,59.89053207464797,
M022C,faces/M022C.jpg,5.63911285,Dominant,Could not finish a simple work project in in time,incompetent,implicit,incongruent,,,,,,,,,,0,25,25,3,,,right,2.855526000028476,,,,,,,,,4,034,2019_Nov_18_1216,trustSTIs,3.0.0b12,59.89053207464797,
M002C,faces/M002C.jpg,5.85635085,Dominant,Was oversensitive and could not handle criticism without crying,oversensitive,explicit,incongruent,,,,,,,,,,0,26,26,0,,,right,0.06703029992058873,,,,,,,,,4,034,2019_Nov_18_1216,trustSTIs,3.0.0b12,59.89053207464797,
M054C,faces/M054C.jpg,5.90524195,Dominant,Was influential and convinced their group to follow their lead,influential,explicit,congruent,,,,,,,,,,0,27,27,9,,,left,7.981747700134292,,,,,,,,,4,034,2019_Nov_18_1216,trustSTIs,3.0.0b12,59.89053207464797,
M021C,faces/M021C.jpg,3.62298385,Nondominant,Declined to attend a friend's holiday party,unsociable,implicit,congruent,,,,,,,,,,0,28,28,22,,,right,3.7405417000409216,,,,,,,,,4,034,2019_Nov_18_1216,trustSTIs,3.0.0b12,59.89053207464797,
M069C,faces/M069C.jpg,4.9460686,Dominant,Gave a speech in support of a controversial topic,bold,implicit,congruent,,,,,,,,,,0,29,29,12,,,left,2.0373746999539435,,,,,,,,,4,034,2019_Nov_18_1216,trustSTIs,3.0.0b12,59.89053207464797,
M072C,faces/M072C.jpg,5.269657165,Dominant,Pedaled harder to ensure they won the race,determined,implicit,congruent,,,,,,,,,,0,30,30,13,,,left,2.621785100083798,,,,,,,,,4,034,2019_Nov_18_1216,trustSTIs,3.0.0b12,59.89053207464797,
M027C,faces/M027C.jpg,5.03477819,Dominant,Preferred not to speak up during a class discussion,quiet,implicit,incongruent,,,,,,,,,,0,31,31,5,,,right,4.124552199849859,,,,,,,,,4,034,2019_Nov_18_1216,trustSTIs,3.0.0b12,59.89053207464797,
M009C,faces/M009C.jpg,5.208669305,Dominant,Was worrying and often "checked in" on their children's mental health,worrying,explicit,incongruent,,,,,,,,,,0,32,32,1,,,left,2.17093320004642,,,,,,,,,4,034,2019_Nov_18_1216,trustSTIs,3.0.0b12,59.89053207464797,
M034C,faces/M034C.jpg,3.175403159,Nondominant,Believed they could build a flying car,courageous,mismatch,congruent,,,,,,,,,,0,33,33,25,,,left,3.4065683998633176,,,,,,,,,4,034,2019_Nov_18_1216,trustSTIs,3.0.0b12,59.89053207464797,
M074C,faces/M074C.jpg,4.90020156,Dominant,Believed that they were the most intelligent in their class,proud,implicit,congruent,,,,,,,,,,0,34,34,14,,,left,2.1041351999156177,,,,,,,,,4,034,2019_Nov_18_1216,trustSTIs,3.0.0b12,59.89053207464797,
M014C,faces/M014C.jpg,3.179939585,Nondominant,Was absent-minded and forgot their spouse's birthday,absent-minded,explicit,congruent,,,,,,,,,,0,35,35,20,,,left,1.9871070000808686,,,,,,,,,4,034,2019_Nov_18_1216,trustSTIs,3.0.0b12,59.89053207464797,
,,,,,,,,,,,,,,,,,,,,,,,,,21,10.92,,,,,,,4,034,2019_Nov_18_1216,trustSTIs,3.0.0b12,59.89053207464797,
,,,,,,,,,,,,,,,,,,,,,,,,,,,right,4.592296599876136,,,,,4,034,2019_Nov_18_1216,trustSTIs,3.0.0b12,59.89053207464797,
,,,,,,,,,,,,,,,,,,,,,,,,,,,,,left,10.503061899915338,,,4,034,2019_Nov_18_1216,trustSTIs,3.0.0b12,59.89053207464797,
,,,,,,,,,,,,,,,,,,,,,,,,,,,,,,,a,3.6403009998612106,4,034,2019_Nov_18_1216,trustSTIs,3.0.0b12,59.89053207464797,
