stimID,face,mDominance,dominance,behavior,trait,trialType,congruence,dist,encodingLoop.thisRepN,encodingLoop.thisTrialN,encodingLoop.thisN,encodingLoop.thisIndex,distLoop.thisRepN,distLoop.thisTrialN,distLoop.thisN,distLoop.thisIndex,recognitionLoop.thisRepN,recognitionLoop.thisTrialN,recognitionLoop.thisN,recognitionLoop.thisIndex,distAnswers.keys,distAnswers.rt,keyResp.keys,keyResp.rt,ageRate.response,ageRate.rt,eflResp.keys,eflResp.rt,genderResp.keys,genderResp.rt,ethResp.keys,ethResp.rt,condition,participant,date,expName,psychopyVersion,frameRate,
M021C,faces/M021C.jpg,3.62298385,Nondominant,Pedaled harder to ensure they won the race,determined,implicit,incongruent,,0,0,0,22,,,,,,,,,,,,,,,,,,,,,1,037,2019_Nov_19_1158,trustSTIs,3.0.0b12,59.89390395343217,
M031C,faces/M031C.jpg,2.62550405,Nondominant,Won a debate in record time,gullible,mismatch,incongruent,,0,1,1,24,,,,,,,,,,,,,,,,,,,,,1,037,2019_Nov_19_1158,trustSTIs,3.0.0b12,59.89390395343217,
M050C,faces/M050C.jpg,4.80090731,Dominant,Scored seven touchdowns in a single game,lonely,mismatch,congruent,,0,2,2,8,,,,,,,,,,,,,,,,,,,,,1,037,2019_Nov_19_1158,trustSTIs,3.0.0b12,59.89390395343217,
M062C,faces/M062C.jpg,4.50907254,Dominant,Was submissive and stood and listened to their boss berate them,submissive,explicit,incongruent,,0,3,3,10,,,,,,,,,,,,,,,,,,,,,1,037,2019_Nov_19_1158,trustSTIs,3.0.0b12,59.89390395343217,
M066C,faces/M066C.jpg,3.618447645,Nondominant,Could not finish a simple work project in in time,incompetent,implicit,congruent,,0,4,4,30,,,,,,,,,,,,,,,,,,,,,1,037,2019_Nov_19_1158,trustSTIs,3.0.0b12,59.89390395343217,
M073C,faces/M073C.jpg,3.661794355,Nondominant,Preferred not to speak up during a class discussion,quiet,implicit,congruent,,0,5,5,32,,,,,,,,,,,,,,,,,,,,,1,037,2019_Nov_19_1158,trustSTIs,3.0.0b12,59.89390395343217,
M030C,faces/M030C.jpg,4.779233991,Dominant,Ordered food for everyone at the dinner table,unconvincing,mismatch,congruent,,0,6,6,6,,,,,,,,,,,,,,,,,,,,,1,037,2019_Nov_19_1158,trustSTIs,3.0.0b12,59.89390395343217,
M009C,faces/M009C.jpg,5.208669305,Dominant,Was outgoing and introduced himself to everyone at the party,outgoing,explicit,congruent,,0,7,7,1,,,,,,,,,,,,,,,,,,,,,1,037,2019_Nov_19_1158,trustSTIs,3.0.0b12,59.89390395343217,
M092C,faces/M092C.jpg,3.25806462,Nondominant,Could not remember the last time they hung out with a friend,talented,mismatch,congruent,,0,8,8,35,,,,,,,,,,,,,,,,,,,,,1,037,2019_Nov_19_1158,trustSTIs,3.0.0b12,59.89390395343217,
M057C,faces/M057C.jpg,3.348286281,Nondominant,Was worried that their friends talked behind their back,anxious,explicit,congruent,,0,9,9,29,,,,,,,,,,,,,,,,,,,,,1,037,2019_Nov_19_1158,trustSTIs,3.0.0b12,59.89390395343217,
M014C,faces/M014C.jpg,3.179939585,Nondominant,Was purposeful and attended a rally to oppose a bigoted politician,purposeful,explicit,incongruent,,0,10,10,20,,,,,,,,,,,,,,,,,,,,,1,037,2019_Nov_19_1158,trustSTIs,3.0.0b12,59.89390395343217,
M047C,faces/M047C.jpg,3.392641182,Nondominant,Was worrying and often "checked in" on their children's mental health,worrying,explicit,congruent,,0,11,11,28,,,,,,,,,,,,,,,,,,,,,1,037,2019_Nov_19_1158,trustSTIs,3.0.0b12,59.89390395343217,
M054C,faces/M054C.jpg,5.90524195,Dominant,Was lazy and decided not to complete an assignment,lazy,explicit,incongruent,,0,12,12,9,,,,,,,,,,,,,,,,,,,,,1,037,2019_Nov_19_1158,trustSTIs,3.0.0b12,59.89390395343217,
M036C,faces/M036C.jpg,2.442540253,Nondominant,Spoke five languages and could read three more,soft-spoken,mismatch,incongruent,,0,13,13,26,,,,,,,,,,,,,,,,,,,,,1,037,2019_Nov_19_1158,trustSTIs,3.0.0b12,59.89390395343217,
M042C,faces/M042C.jpg,3.357862932,Nondominant,Was oversensitive and could not handle criticism without crying,oversensitive,explicit,congruent,,0,14,14,27,,,,,,,,,,,,,,,,,,,,,1,037,2019_Nov_19_1158,trustSTIs,3.0.0b12,59.89390395343217,
M072C,faces/M072C.jpg,5.269657165,Dominant,Declined to attend a friend's holiday party,unsociable,implicit,incongruent,,0,15,15,13,,,,,,,,,,,,,,,,,,,,,1,037,2019_Nov_19_1158,trustSTIs,3.0.0b12,59.89390395343217,
M017C,faces/M017C.jpg,4.551915335,Dominant,Was smart and solved a Rubik's cube in four minutes,smart,explicit,congruent,,0,16,16,2,,,,,,,,,,,,,,,,,,,,,1,037,2019_Nov_19_1158,trustSTIs,3.0.0b12,59.89390395343217,
M034C,faces/M034C.jpg,3.175403159,Nondominant,Stood up for their beliefs even when it was unpopular,foolish,mismatch,incongruent,,0,17,17,25,,,,,,,,,,,,,,,,,,,,,1,037,2019_Nov_19_1158,trustSTIs,3.0.0b12,59.89390395343217,
M088C,faces/M088C.jpg,4.727318497,Dominant,Sent money to a Nigerian scammer,persuasive,mismatch,incongruent,,0,18,18,15,,,,,,,,,,,,,,,,,,,,,1,037,2019_Nov_19_1158,trustSTIs,3.0.0b12,59.89390395343217,
M002C,faces/M002C.jpg,5.85635085,Dominant,Was fearless and went skydiving without hesitation,fearless,explicit,congruent,,0,19,19,0,,,,,,,,,,,,,,,,,,,,,1,037,2019_Nov_19_1158,trustSTIs,3.0.0b12,59.89390395343217,
M024C,faces/M024C.jpg,3.67187497,Nondominant,Believed that they were the most intelligent in their class,proud,implicit,incongruent,,0,20,20,23,,,,,,,,,,,,,,,,,,,,,1,037,2019_Nov_19_1158,trustSTIs,3.0.0b12,59.89390395343217,
M001C,faces/M001C.jpg,3.061491945,Nondominant,Was influential and convinced their group to follow their lead,influential,explicit,incongruent,,0,21,21,18,,,,,,,,,,,,,,,,,,,,,1,037,2019_Nov_19_1158,trustSTIs,3.0.0b12,59.89390395343217,
M016C,faces/M016C.jpg,2.91229845,Nondominant,Gave a speech in support of a controversial topic,bold,implicit,incongruent,,0,22,22,21,,,,,,,,,,,,,,,,,,,,,1,037,2019_Nov_19_1158,trustSTIs,3.0.0b12,59.89390395343217,
M069C,faces/M069C.jpg,4.9460686,Dominant,Decided to avoid an argument out of a fear of losing,passive,implicit,incongruent,,0,23,23,12,,,,,,,,,,,,,,,,,,,,,1,037,2019_Nov_19_1158,trustSTIs,3.0.0b12,59.89390395343217,
M067C,faces/M067C.jpg,4.70614921,Dominant,Was absent-minded and forgot their spouse's birthday,absent-minded,explicit,incongruent,,0,24,24,11,,,,,,,,,,,,,,,,,,,,,1,037,2019_Nov_19_1158,trustSTIs,3.0.0b12,59.89390395343217,
M089C,faces/M089C.jpg,2.621975722,Nondominant,Afraid of being hit by a car when crossing a street,confident,mismatch,congruent,,0,25,25,34,,,,,,,,,,,,,,,,,,,,,1,037,2019_Nov_19_1158,trustSTIs,3.0.0b12,59.89390395343217,
M027C,faces/M027C.jpg,5.03477819,Dominant,Completed four work projects in a single week,productive,implicit,congruent,,0,26,26,5,,,,,,,,,,,,,,,,,,,,,1,037,2019_Nov_19_1158,trustSTIs,3.0.0b12,59.89390395343217,
M090C,faces/M090C.jpg,4.571572515,Dominant,Believed they could build a flying car,courageous,mismatch,incongruent,,0,27,27,16,,,,,,,,,,,,,,,,,,,,,1,037,2019_Nov_19_1158,trustSTIs,3.0.0b12,59.89390395343217,
M074C,faces/M074C.jpg,4.90020156,Dominant,Dressed in the same style as all of their friends,conformist,implicit,incongruent,,0,28,28,14,,,,,,,,,,,,,,,,,,,,,1,037,2019_Nov_19_1158,trustSTIs,3.0.0b12,59.89390395343217,
M070C,faces/M070C.jpg,3.235887104,Nondominant,Could not lift a 50lb bag of cement,weak,implicit,congruent,,0,29,29,31,,,,,,,,,,,,,,,,,,,,,1,037,2019_Nov_19_1158,trustSTIs,3.0.0b12,59.89390395343217,
M022C,faces/M022C.jpg,5.63911285,Dominant,Took over their work team when they needed a leader,assertive,implicit,congruent,,0,30,30,3,,,,,,,,,,,,,,,,,,,,,1,037,2019_Nov_19_1158,trustSTIs,3.0.0b12,59.89390395343217,
M010C,faces/M010C.jpg,3.430947582,Nondominant,Was dominant and proclaimed himself their group's leader,dominant,explicit,incongruent,,0,31,31,19,,,,,,,,,,,,,,,,,,,,,1,037,2019_Nov_19_1158,trustSTIs,3.0.0b12,59.89390395343217,
M023C,faces/M023C.jpg,5.23991936,Dominant,Declined to ask for help when solving a difficult problem,independent,implicit,congruent,,0,32,32,4,,,,,,,,,,,,,,,,,,,,,1,037,2019_Nov_19_1158,trustSTIs,3.0.0b12,59.89390395343217,
M095C,faces/M095C.jpg,4.7610887,Dominant,Did not want to speak up about their own opinions,competent,mismatch,incongruent,,0,33,33,17,,,,,,,,,,,,,,,,,,,,,1,037,2019_Nov_19_1158,trustSTIs,3.0.0b12,59.89390395343217,
M038C,faces/M039C.jpg,5.087197565,Dominant,Was sure of all of their answers on the exam,nervous,mismatch,congruent,,0,34,34,7,,,,,,,,,,,,,,,,,,,,,1,037,2019_Nov_19_1158,trustSTIs,3.0.0b12,59.89390395343217,
M078C,faces/M078C.jpg,3.31552405,Nondominant,Could not win an argument with a coworker,decisive,mismatch,congruent,,0,35,35,33,,,,,,,,,,,,,,,,,,,,,1,037,2019_Nov_19_1158,trustSTIs,3.0.0b12,59.89390395343217,
,,,,,,,,6 * 9 = ?,,,,,0,0,0,2,,,,,['space'],[13.324900699779391],,,,,,,,,,,1,037,2019_Nov_19_1158,trustSTIs,3.0.0b12,59.89390395343217,
,,,,,,,,(5 + 7) ÷ 4 = ?,,,,,0,1,1,1,,,,,['space'],[12.62367819994688],,,,,,,,,,,1,037,2019_Nov_19_1158,trustSTIs,3.0.0b12,59.89390395343217,
,,,,,,,,√49 x 7 = ?,,,,,0,2,2,6,,,,,['space'],[12.239572300110012],,,,,,,,,,,1,037,2019_Nov_19_1158,trustSTIs,3.0.0b12,59.89390395343217,
,,,,,,,,169 ÷ 13 = ?,,,,,0,3,3,8,,,,,['space'],[14.510666099842638],,,,,,,,,,,1,037,2019_Nov_19_1158,trustSTIs,3.0.0b12,59.89390395343217,
,,,,,,,,(5 x 4) - 12 = ?,,,,,0,4,4,9,,,,,['space'],[14.660718500148505],,,,,,,,,,,1,037,2019_Nov_19_1158,trustSTIs,3.0.0b12,59.89390395343217,
,,,,,,,,√100 = ?,,,,,0,5,5,3,,,,,['space'],[11.30453690001741],,,,,,,,,,,1,037,2019_Nov_19_1158,trustSTIs,3.0.0b12,59.89390395343217,
,,,,,,,,(24 ÷ 3) x 5 = ?,,,,,0,6,6,5,,,,,['space'],[13.124425599817187],,,,,,,,,,,1,037,2019_Nov_19_1158,trustSTIs,3.0.0b12,59.89390395343217,
,,,,,,,,3² = ?,,,,,0,7,7,0,,,,,['space'],[11.30469680018723],,,,,,,,,,,1,037,2019_Nov_19_1158,trustSTIs,3.0.0b12,59.89390395343217,
,,,,,,,,7³ = ?,,,,,0,8,8,7,,,,,['space'],[22.775648800190538],,,,,,,,,,,1,037,2019_Nov_19_1158,trustSTIs,3.0.0b12,59.89390395343217,
,,,,,,,,54 ÷ 9 = ?,,,,,0,9,9,4,,,,,['space'],[11.738777399994433],,,,,,,,,,,1,037,2019_Nov_19_1158,trustSTIs,3.0.0b12,59.89390395343217,
M017C,faces/M017C.jpg,4.551915335,Dominant,Was smart and solved a Rubik's cube in four minutes,smart,explicit,congruent,,,,,,,,,,0,0,0,2,,,right,4.291500799823552,,,,,,,,,1,037,2019_Nov_19_1158,trustSTIs,3.0.0b12,59.89390395343217,
M030C,faces/M030C.jpg,4.779233991,Dominant,Ordered food for everyone at the dinner table,unconvincing,mismatch,congruent,,,,,,,,,,0,1,1,6,,,right,5.995389799587429,,,,,,,,,1,037,2019_Nov_19_1158,trustSTIs,3.0.0b12,59.89390395343217,
M024C,faces/M024C.jpg,3.67187497,Nondominant,Believed that they were the most intelligent in their class,proud,implicit,incongruent,,,,,,,,,,0,2,2,23,,,left,0.9687950001098216,,,,,,,,,1,037,2019_Nov_19_1158,trustSTIs,3.0.0b12,59.89390395343217,
M031C,faces/M031C.jpg,2.62550405,Nondominant,Won a debate in record time,gullible,mismatch,incongruent,,,,,,,,,,0,3,3,24,,,left,2.371328900102526,,,,,,,,,1,037,2019_Nov_19_1158,trustSTIs,3.0.0b12,59.89390395343217,
M047C,faces/M047C.jpg,3.392641182,Nondominant,Was worrying and often "checked in" on their children's mental health,worrying,explicit,congruent,,,,,,,,,,0,4,4,28,,,left,1.3527637999504805,,,,,,,,,1,037,2019_Nov_19_1158,trustSTIs,3.0.0b12,59.89390395343217,
M067C,faces/M067C.jpg,4.70614921,Dominant,Was absent-minded and forgot their spouse's birthday,absent-minded,explicit,incongruent,,,,,,,,,,0,5,5,11,,,left,1.436340100131929,,,,,,,,,1,037,2019_Nov_19_1158,trustSTIs,3.0.0b12,59.89390395343217,
M092C,faces/M092C.jpg,3.25806462,Nondominant,Could not remember the last time they hung out with a friend,talented,mismatch,congruent,,,,,,,,,,0,6,6,35,,,right,1.052119900006801,,,,,,,,,1,037,2019_Nov_19_1158,trustSTIs,3.0.0b12,59.89390395343217,
M001C,faces/M001C.jpg,3.061491945,Nondominant,Was influential and convinced their group to follow their lead,influential,explicit,incongruent,,,,,,,,,,0,7,7,18,,,left,1.0689368997700512,,,,,,,,,1,037,2019_Nov_19_1158,trustSTIs,3.0.0b12,59.89390395343217,
M057C,faces/M057C.jpg,3.348286281,Nondominant,Was worried that their friends talked behind their back,anxious,explicit,congruent,,,,,,,,,,0,8,8,29,,,right,1.6700573000125587,,,,,,,,,1,037,2019_Nov_19_1158,trustSTIs,3.0.0b12,59.89390395343217,
M054C,faces/M054C.jpg,5.90524195,Dominant,Was lazy and decided not to complete an assignment,lazy,explicit,incongruent,,,,,,,,,,0,9,9,9,,,left,1.4695953000336885,,,,,,,,,1,037,2019_Nov_19_1158,trustSTIs,3.0.0b12,59.89390395343217,
M062C,faces/M062C.jpg,4.50907254,Dominant,Was submissive and stood and listened to their boss berate them,submissive,explicit,incongruent,,,,,,,,,,0,10,10,10,,,left,1.1858661998994648,,,,,,,,,1,037,2019_Nov_19_1158,trustSTIs,3.0.0b12,59.89390395343217,
M014C,faces/M014C.jpg,3.179939585,Nondominant,Was purposeful and attended a rally to oppose a bigoted politician,purposeful,explicit,incongruent,,,,,,,,,,0,11,11,20,,,left,2.1373445000499487,,,,,,,,,1,037,2019_Nov_19_1158,trustSTIs,3.0.0b12,59.89390395343217,
M023C,faces/M023C.jpg,5.23991936,Dominant,Declined to ask for help when solving a difficult problem,independent,implicit,congruent,,,,,,,,,,0,12,12,4,,,right,1.6198587003163993,,,,,,,,,1,037,2019_Nov_19_1158,trustSTIs,3.0.0b12,59.89390395343217,
M072C,faces/M072C.jpg,5.269657165,Dominant,Declined to attend a friend's holiday party,unsociable,implicit,incongruent,,,,,,,,,,0,13,13,13,,,right,1.7035972001031041,,,,,,,,,1,037,2019_Nov_19_1158,trustSTIs,3.0.0b12,59.89390395343217,
M078C,faces/M078C.jpg,3.31552405,Nondominant,Could not win an argument with a coworker,decisive,mismatch,congruent,,,,,,,,,,0,14,14,33,,,left,2.187687600031495,,,,,,,,,1,037,2019_Nov_19_1158,trustSTIs,3.0.0b12,59.89390395343217,
M021C,faces/M021C.jpg,3.62298385,Nondominant,Pedaled harder to ensure they won the race,determined,implicit,incongruent,,,,,,,,,,0,15,15,22,,,left,3.7572373999282718,,,,,,,,,1,037,2019_Nov_19_1158,trustSTIs,3.0.0b12,59.89390395343217,
M095C,faces/M095C.jpg,4.7610887,Dominant,Did not want to speak up about their own opinions,competent,mismatch,incongruent,,,,,,,,,,0,16,16,17,,,right,1.1690742997452617,,,,,,,,,1,037,2019_Nov_19_1158,trustSTIs,3.0.0b12,59.89390395343217,
M073C,faces/M073C.jpg,3.661794355,Nondominant,Preferred not to speak up during a class discussion,quiet,implicit,congruent,,,,,,,,,,0,17,17,32,,,left,1.018739199731499,,,,,,,,,1,037,2019_Nov_19_1158,trustSTIs,3.0.0b12,59.89390395343217,
M066C,faces/M066C.jpg,3.618447645,Nondominant,Could not finish a simple work project in in time,incompetent,implicit,congruent,,,,,,,,,,0,18,18,30,,,left,3.556981800124049,,,,,,,,,1,037,2019_Nov_19_1158,trustSTIs,3.0.0b12,59.89390395343217,
M038C,faces/M039C.jpg,5.087197565,Dominant,Was sure of all of their answers on the exam,nervous,mismatch,congruent,,,,,,,,,,0,19,19,7,,,left,2.1541577000170946,,,,,,,,,1,037,2019_Nov_19_1158,trustSTIs,3.0.0b12,59.89390395343217,
M088C,faces/M088C.jpg,4.727318497,Dominant,Sent money to a Nigerian scammer,persuasive,mismatch,incongruent,,,,,,,,,,0,20,20,15,,,right,1.3527858001179993,,,,,,,,,1,037,2019_Nov_19_1158,trustSTIs,3.0.0b12,59.89390395343217,
M042C,faces/M042C.jpg,3.357862932,Nondominant,Was oversensitive and could not handle criticism without crying,oversensitive,explicit,congruent,,,,,,,,,,0,21,21,27,,,left,1.1356318998150527,,,,,,,,,1,037,2019_Nov_19_1158,trustSTIs,3.0.0b12,59.89390395343217,
M069C,faces/M069C.jpg,4.9460686,Dominant,Decided to avoid an argument out of a fear of losing,passive,implicit,incongruent,,,,,,,,,,0,22,22,12,,,left,1.002135599963367,,,,,,,,,1,037,2019_Nov_19_1158,trustSTIs,3.0.0b12,59.89390395343217,
M034C,faces/M034C.jpg,3.175403159,Nondominant,Stood up for their beliefs even when it was unpopular,foolish,mismatch,incongruent,,,,,,,,,,0,23,23,25,,,left,1.453069900162518,,,,,,,,,1,037,2019_Nov_19_1158,trustSTIs,3.0.0b12,59.89390395343217,
M010C,faces/M010C.jpg,3.430947582,Nondominant,Was dominant and proclaimed himself their group's leader,dominant,explicit,incongruent,,,,,,,,,,0,24,24,19,,,left,1.2358332998119295,,,,,,,,,1,037,2019_Nov_19_1158,trustSTIs,3.0.0b12,59.89390395343217,
M027C,faces/M027C.jpg,5.03477819,Dominant,Completed four work projects in a single week,productive,implicit,congruent,,,,,,,,,,0,25,25,5,,,right,1.4694691002368927,,,,,,,,,1,037,2019_Nov_19_1158,trustSTIs,3.0.0b12,59.89390395343217,
M036C,faces/M036C.jpg,2.442540253,Nondominant,Spoke five languages and could read three more,soft-spoken,mismatch,incongruent,,,,,,,,,,0,26,26,26,,,right,2.8553546997718513,,,,,,,,,1,037,2019_Nov_19_1158,trustSTIs,3.0.0b12,59.89390395343217,
M070C,faces/M070C.jpg,3.235887104,Nondominant,Could not lift a 50lb bag of cement,weak,implicit,congruent,,,,,,,,,,0,27,27,31,,,left,0.8852059999480844,,,,,,,,,1,037,2019_Nov_19_1158,trustSTIs,3.0.0b12,59.89390395343217,
M089C,faces/M089C.jpg,2.621975722,Nondominant,Afraid of being hit by a car when crossing a street,confident,mismatch,congruent,,,,,,,,,,0,28,28,34,,,left,1.2358229998499155,,,,,,,,,1,037,2019_Nov_19_1158,trustSTIs,3.0.0b12,59.89390395343217,
M022C,faces/M022C.jpg,5.63911285,Dominant,Took over their work team when they needed a leader,assertive,implicit,congruent,,,,,,,,,,0,29,29,3,,,left,0.9855323997326195,,,,,,,,,1,037,2019_Nov_19_1158,trustSTIs,3.0.0b12,59.89390395343217,
M009C,faces/M009C.jpg,5.208669305,Dominant,Was outgoing and introduced himself to everyone at the party,outgoing,explicit,congruent,,,,,,,,,,0,30,30,1,,,left,1.8870553998276591,,,,,,,,,1,037,2019_Nov_19_1158,trustSTIs,3.0.0b12,59.89390395343217,
M016C,faces/M016C.jpg,2.91229845,Nondominant,Gave a speech in support of a controversial topic,bold,implicit,incongruent,,,,,,,,,,0,31,31,21,,,right,1.536270100157708,,,,,,,,,1,037,2019_Nov_19_1158,trustSTIs,3.0.0b12,59.89390395343217,
M050C,faces/M050C.jpg,4.80090731,Dominant,Scored seven touchdowns in a single game,lonely,mismatch,congruent,,,,,,,,,,0,32,32,8,,,right,2.304537400137633,,,,,,,,,1,037,2019_Nov_19_1158,trustSTIs,3.0.0b12,59.89390395343217,
M002C,faces/M002C.jpg,5.85635085,Dominant,Was fearless and went skydiving without hesitation,fearless,explicit,congruent,,,,,,,,,,0,33,33,0,,,left,1.1189327999018133,,,,,,,,,1,037,2019_Nov_19_1158,trustSTIs,3.0.0b12,59.89390395343217,
M090C,faces/M090C.jpg,4.571572515,Dominant,Believed they could build a flying car,courageous,mismatch,incongruent,,,,,,,,,,0,34,34,16,,,right,2.0373324998654425,,,,,,,,,1,037,2019_Nov_19_1158,trustSTIs,3.0.0b12,59.89390395343217,
M074C,faces/M074C.jpg,4.90020156,Dominant,Dressed in the same style as all of their friends,conformist,implicit,incongruent,,,,,,,,,,0,35,35,14,,,left,1.5029722000472248,,,,,,,,,1,037,2019_Nov_19_1158,trustSTIs,3.0.0b12,59.89390395343217,
,,,,,,,,,,,,,,,,,,,,,,,,,18,4.492,,,,,,,1,037,2019_Nov_19_1158,trustSTIs,3.0.0b12,59.89390395343217,
,,,,,,,,,,,,,,,,,,,,,,,,,,,right,3.523652400355786,,,,,1,037,2019_Nov_19_1158,trustSTIs,3.0.0b12,59.89390395343217,
,,,,,,,,,,,,,,,,,,,,,,,,,,,,,left,3.790602999739349,,,1,037,2019_Nov_19_1158,trustSTIs,3.0.0b12,59.89390395343217,
,,,,,,,,,,,,,,,,,,,,,,,,,,,,,,,a,5.894562900066376,1,037,2019_Nov_19_1158,trustSTIs,3.0.0b12,59.89390395343217,
