stimID,face,mDominance,dominance,behavior,trait,trialType,congruence,dist,encodingLoop.thisRepN,encodingLoop.thisTrialN,encodingLoop.thisN,encodingLoop.thisIndex,distLoop.thisRepN,distLoop.thisTrialN,distLoop.thisN,distLoop.thisIndex,recognitionLoop.thisRepN,recognitionLoop.thisTrialN,recognitionLoop.thisN,recognitionLoop.thisIndex,distAnswers.keys,distAnswers.rt,keyResp.keys,keyResp.rt,ageRate.response,ageRate.rt,eflResp.keys,eflResp.rt,genderResp.keys,genderResp.rt,ethResp.keys,ethResp.rt,condition,participant,date,expName,psychopyVersion,frameRate,
M088C,faces/M088C.jpg,4.727318497,Dominant,Sent money to a Nigerian scammer,gullible,implicit,incongruent,,0,0,0,15,,,,,,,,,,,,,,,,,,,,,2,044,2019_Nov_20_1144,trustSTIs,3.0.0b12,59.89257680451747,
M072C,faces/M072C.jpg,5.269657165,Dominant,Was unsociable and declined to attend a friend's holiday party,unsociable,explicit,incongruent,,0,1,1,13,,,,,,,,,,,,,,,,,,,,,2,044,2019_Nov_20_1144,trustSTIs,3.0.0b12,59.89257680451747,
M038C,faces/M039C.jpg,5.087197565,Dominant,Was sure of all of their answers on the exam,confident,implicit,congruent,,0,2,2,7,,,,,,,,,,,,,,,,,,,,,2,044,2019_Nov_20_1144,trustSTIs,3.0.0b12,59.89257680451747,
M022C,faces/M022C.jpg,5.63911285,Dominant,Was assertive and took over their work team when they needed a leader,assertive,explicit,congruent,,0,3,3,3,,,,,,,,,,,,,,,,,,,,,2,044,2019_Nov_20_1144,trustSTIs,3.0.0b12,59.89257680451747,
M092C,faces/M092C.jpg,3.25806462,Nondominant,Could not remember the last time they hung out with a friend,lonely,implicit,congruent,,0,4,4,35,,,,,,,,,,,,,,,,,,,,,2,044,2019_Nov_20_1144,trustSTIs,3.0.0b12,59.89257680451747,
M002C,faces/M002C.jpg,5.85635085,Dominant,Went skydiving without hesitation,oversensitive,mismatch,congruent,,0,5,5,0,,,,,,,,,,,,,,,,,,,,,2,044,2019_Nov_20_1144,trustSTIs,3.0.0b12,59.89257680451747,
M066C,faces/M066C.jpg,3.618447645,Nondominant,Was incompetent and could not finish a simple work project in in time,incompetent,explicit,congruent,,0,6,6,30,,,,,,,,,,,,,,,,,,,,,2,044,2019_Nov_20_1144,trustSTIs,3.0.0b12,59.89257680451747,
M009C,faces/M009C.jpg,5.208669305,Dominant,Introduced himself to everyone at the party,worrying,mismatch,congruent,,0,7,7,1,,,,,,,,,,,,,,,,,,,,,2,044,2019_Nov_20_1144,trustSTIs,3.0.0b12,59.89257680451747,
M031C,faces/M031C.jpg,2.62550405,Nondominant,Won a debate in record time,persuasive,implicit,incongruent,,0,8,8,24,,,,,,,,,,,,,,,,,,,,,2,044,2019_Nov_20_1144,trustSTIs,3.0.0b12,59.89257680451747,
M073C,faces/M073C.jpg,3.661794355,Nondominant,Was quiet and preferred not to speak up during a class discussion,quiet,explicit,congruent,,0,9,9,32,,,,,,,,,,,,,,,,,,,,,2,044,2019_Nov_20_1144,trustSTIs,3.0.0b12,59.89257680451747,
M016C,faces/M016C.jpg,2.91229845,Nondominant,Was bold and gave a speech in support of a controversial topic,bold,explicit,incongruent,,0,10,10,21,,,,,,,,,,,,,,,,,,,,,2,044,2019_Nov_20_1144,trustSTIs,3.0.0b12,59.89257680451747,
M054C,faces/M054C.jpg,5.90524195,Dominant,Decided not to complete an assignment,influential,mismatch,incongruent,,0,11,11,9,,,,,,,,,,,,,,,,,,,,,2,044,2019_Nov_20_1144,trustSTIs,3.0.0b12,59.89257680451747,
M030C,faces/M030C.jpg,4.779233991,Dominant,Ordered food for everyone at the dinner table,decisive,implicit,congruent,,0,12,12,6,,,,,,,,,,,,,,,,,,,,,2,044,2019_Nov_20_1144,trustSTIs,3.0.0b12,59.89257680451747,
M023C,faces/M023C.jpg,5.23991936,Dominant,Was independent and declined to ask for help when solving a difficult problem,independent,explicit,congruent,,0,13,13,4,,,,,,,,,,,,,,,,,,,,,2,044,2019_Nov_20_1144,trustSTIs,3.0.0b12,59.89257680451747,
M036C,faces/M036C.jpg,2.442540253,Nondominant,Spoke five languages and could read three more,competent,implicit,incongruent,,0,14,14,26,,,,,,,,,,,,,,,,,,,,,2,044,2019_Nov_20_1144,trustSTIs,3.0.0b12,59.89257680451747,
M089C,faces/M089C.jpg,2.621975722,Nondominant,Afraid of being hit by a car when crossing a street,nervous,implicit,congruent,,0,15,15,34,,,,,,,,,,,,,,,,,,,,,2,044,2019_Nov_20_1144,trustSTIs,3.0.0b12,59.89257680451747,
M014C,faces/M014C.jpg,3.179939585,Nondominant,Attended a rally to oppose a bigoted politician,absent-minded,mismatch,incongruent,,0,16,16,20,,,,,,,,,,,,,,,,,,,,,2,044,2019_Nov_20_1144,trustSTIs,3.0.0b12,59.89257680451747,
M069C,faces/M069C.jpg,4.9460686,Dominant,Was passive and decided to avoid an argument out of a fear of losing,passive,explicit,incongruent,,0,17,17,12,,,,,,,,,,,,,,,,,,,,,2,044,2019_Nov_20_1144,trustSTIs,3.0.0b12,59.89257680451747,
M010C,faces/M010C.jpg,3.430947582,Nondominant,Proclaimed himself their group's leader,submissive,mismatch,incongruent,,0,18,18,19,,,,,,,,,,,,,,,,,,,,,2,044,2019_Nov_20_1144,trustSTIs,3.0.0b12,59.89257680451747,
M078C,faces/M078C.jpg,3.31552405,Nondominant,Could not win an argument with a coworker,unconvincing,implicit,congruent,,0,19,19,33,,,,,,,,,,,,,,,,,,,,,2,044,2019_Nov_20_1144,trustSTIs,3.0.0b12,59.89257680451747,
M067C,faces/M067C.jpg,4.70614921,Dominant,Forgot their spouse's birthday,purposeful,mismatch,incongruent,,0,20,20,11,,,,,,,,,,,,,,,,,,,,,2,044,2019_Nov_20_1144,trustSTIs,3.0.0b12,59.89257680451747,
M095C,faces/M095C.jpg,4.7610887,Dominant,Did not want to speak up about their own opinions,soft-spoken,implicit,incongruent,,0,21,21,17,,,,,,,,,,,,,,,,,,,,,2,044,2019_Nov_20_1144,trustSTIs,3.0.0b12,59.89257680451747,
M057C,faces/M057C.jpg,3.348286281,Nondominant,Worried that their friends talked behind their back,smart,mismatch,congruent,,0,22,22,29,,,,,,,,,,,,,,,,,,,,,2,044,2019_Nov_20_1144,trustSTIs,3.0.0b12,59.89257680451747,
M001C,faces/M001C.jpg,3.061491945,Nondominant,Convinced their group to follow their lead,lazy,mismatch,incongruent,,0,23,23,18,,,,,,,,,,,,,,,,,,,,,2,044,2019_Nov_20_1144,trustSTIs,3.0.0b12,59.89257680451747,
M034C,faces/M034C.jpg,3.175403159,Nondominant,Stood up for their beliefs even when it was unpopular,courageous,implicit,incongruent,,0,24,24,25,,,,,,,,,,,,,,,,,,,,,2,044,2019_Nov_20_1144,trustSTIs,3.0.0b12,59.89257680451747,
M024C,faces/M024C.jpg,3.67187497,Nondominant,Was proud and believed that they were the most intelligent in their class,proud,explicit,incongruent,,0,25,25,23,,,,,,,,,,,,,,,,,,,,,2,044,2019_Nov_20_1144,trustSTIs,3.0.0b12,59.89257680451747,
M070C,faces/M070C.jpg,3.235887104,Nondominant,Was weak and could not lift a 50lb bag of cement,weak,explicit,congruent,,0,26,26,31,,,,,,,,,,,,,,,,,,,,,2,044,2019_Nov_20_1144,trustSTIs,3.0.0b12,59.89257680451747,
M050C,faces/M050C.jpg,4.80090731,Dominant,Scored seven touchdowns in a single game,talented,implicit,congruent,,0,27,27,8,,,,,,,,,,,,,,,,,,,,,2,044,2019_Nov_20_1144,trustSTIs,3.0.0b12,59.89257680451747,
M042C,faces/M042C.jpg,3.357862932,Nondominant,Could not handle criticism without crying,fearless,mismatch,congruent,,0,28,28,27,,,,,,,,,,,,,,,,,,,,,2,044,2019_Nov_20_1144,trustSTIs,3.0.0b12,59.89257680451747,
M074C,faces/M074C.jpg,4.90020156,Dominant,Was conformist and dressed in the same style as all of their friends,conformist,explicit,incongruent,,0,29,29,14,,,,,,,,,,,,,,,,,,,,,2,044,2019_Nov_20_1144,trustSTIs,3.0.0b12,59.89257680451747,
M047C,faces/M047C.jpg,3.392641182,Nondominant,Often "checked in" on their children's mental health,outgoing,mismatch,congruent,,0,30,30,28,,,,,,,,,,,,,,,,,,,,,2,044,2019_Nov_20_1144,trustSTIs,3.0.0b12,59.89257680451747,
M090C,faces/M090C.jpg,4.571572515,Dominant,Believed they could build a flying car,foolish,implicit,incongruent,,0,31,31,16,,,,,,,,,,,,,,,,,,,,,2,044,2019_Nov_20_1144,trustSTIs,3.0.0b12,59.89257680451747,
M021C,faces/M021C.jpg,3.62298385,Nondominant,Was determined and pedaled harder to ensure they won the race,determined,explicit,incongruent,,0,32,32,22,,,,,,,,,,,,,,,,,,,,,2,044,2019_Nov_20_1144,trustSTIs,3.0.0b12,59.89257680451747,
M017C,faces/M017C.jpg,4.551915335,Dominant,Solved a Rubik's cube in four minutes,anxious,mismatch,congruent,,0,33,33,2,,,,,,,,,,,,,,,,,,,,,2,044,2019_Nov_20_1144,trustSTIs,3.0.0b12,59.89257680451747,
M027C,faces/M027C.jpg,5.03477819,Dominant,Was productive and completed four work projects in a single week,productive,explicit,congruent,,0,34,34,5,,,,,,,,,,,,,,,,,,,,,2,044,2019_Nov_20_1144,trustSTIs,3.0.0b12,59.89257680451747,
M062C,faces/M062C.jpg,4.50907254,Dominant,Stood and listened to their boss berate them,dominant,mismatch,incongruent,,0,35,35,10,,,,,,,,,,,,,,,,,,,,,2,044,2019_Nov_20_1144,trustSTIs,3.0.0b12,59.89257680451747,
,,,,,,,,3² = ?,,,,,0,0,0,0,,,,,['space'],[10.119150499813259],,,,,,,,,,,2,044,2019_Nov_20_1144,trustSTIs,3.0.0b12,59.89257680451747,
,,,,,,,,6 * 9 = ?,,,,,0,1,1,2,,,,,['space'],[9.25078559992835],,,,,,,,,,,2,044,2019_Nov_20_1144,trustSTIs,3.0.0b12,59.89257680451747,
,,,,,,,,√100 = ?,,,,,0,2,2,3,,,,,['space'],[0.20035520009696484],,,,,,,,,,,2,044,2019_Nov_20_1144,trustSTIs,3.0.0b12,59.89257680451747,
,,,,,,,,169 ÷ 13 = ?,,,,,0,3,3,8,,,,,['space'],[4.458477799780667],,,,,,,,,,,2,044,2019_Nov_20_1144,trustSTIs,3.0.0b12,59.89257680451747,
,,,,,,,,(5 + 7) ÷ 4 = ?,,,,,0,4,4,1,,,,,['space'],[14.210123099852353],,,,,,,,,,,2,044,2019_Nov_20_1144,trustSTIs,3.0.0b12,59.89257680451747,
,,,,,,,,54 ÷ 9 = ?,,,,,0,5,5,4,,,,,['space'],[11.605141500011086],,,,,,,,,,,2,044,2019_Nov_20_1144,trustSTIs,3.0.0b12,59.89257680451747,
,,,,,,,,√49 x 7 = ?,,,,,0,6,6,6,,,,,['space'],[4.825648499652743],,,,,,,,,,,2,044,2019_Nov_20_1144,trustSTIs,3.0.0b12,59.89257680451747,
,,,,,,,,(24 ÷ 3) x 5 = ?,,,,,0,7,7,5,,,,,['space'],[11.939190099947155],,,,,,,,,,,2,044,2019_Nov_20_1144,trustSTIs,3.0.0b12,59.89257680451747,
,,,,,,,,(5 x 4) - 12 = ?,,,,,0,8,8,9,,,,,['space'],[8.516040399670601],,,,,,,,,,,2,044,2019_Nov_20_1144,trustSTIs,3.0.0b12,59.89257680451747,
,,,,,,,,7³ = ?,,,,,0,9,9,7,,,,,['space'],[15.96321709966287],,,,,,,,,,,2,044,2019_Nov_20_1144,trustSTIs,3.0.0b12,59.89257680451747,
M031C,faces/M031C.jpg,2.62550405,Nondominant,Won a debate in record time,persuasive,implicit,incongruent,,,,,,,,,,0,0,0,24,,,left,3.1060366998426616,,,,,,,,,2,044,2019_Nov_20_1144,trustSTIs,3.0.0b12,59.89257680451747,
M021C,faces/M021C.jpg,3.62298385,Nondominant,Was determined and pedaled harder to ensure they won the race,determined,explicit,incongruent,,,,,,,,,,0,1,1,22,,,right,5.51044540014118,,,,,,,,,2,044,2019_Nov_20_1144,trustSTIs,3.0.0b12,59.89257680451747,
M089C,faces/M089C.jpg,2.621975722,Nondominant,Afraid of being hit by a car when crossing a street,nervous,implicit,congruent,,,,,,,,,,0,2,2,34,,,right,2.805424500256777,,,,,,,,,2,044,2019_Nov_20_1144,trustSTIs,3.0.0b12,59.89257680451747,
M038C,faces/M039C.jpg,5.087197565,Dominant,Was sure of all of their answers on the exam,confident,implicit,congruent,,,,,,,,,,0,3,3,7,,,right,2.1709425998851657,,,,,,,,,2,044,2019_Nov_20_1144,trustSTIs,3.0.0b12,59.89257680451747,
M022C,faces/M022C.jpg,5.63911285,Dominant,Was assertive and took over their work team when they needed a leader,assertive,explicit,congruent,,,,,,,,,,0,4,4,3,,,left,4.291494799777865,,,,,,,,,2,044,2019_Nov_20_1144,trustSTIs,3.0.0b12,59.89257680451747,
M073C,faces/M073C.jpg,3.661794355,Nondominant,Was quiet and preferred not to speak up during a class discussion,quiet,explicit,congruent,,,,,,,,,,0,5,5,32,,,left,1.9706969000399113,,,,,,,,,2,044,2019_Nov_20_1144,trustSTIs,3.0.0b12,59.89257680451747,
M069C,faces/M069C.jpg,4.9460686,Dominant,Was passive and decided to avoid an argument out of a fear of losing,passive,explicit,incongruent,,,,,,,,,,0,6,6,12,,,left,1.6032302998937666,,,,,,,,,2,044,2019_Nov_20_1144,trustSTIs,3.0.0b12,59.89257680451747,
M036C,faces/M036C.jpg,2.442540253,Nondominant,Spoke five languages and could read three more,competent,implicit,incongruent,,,,,,,,,,0,7,7,26,,,right,2.788718900177628,,,,,,,,,2,044,2019_Nov_20_1144,trustSTIs,3.0.0b12,59.89257680451747,
M042C,faces/M042C.jpg,3.357862932,Nondominant,Could not handle criticism without crying,fearless,mismatch,congruent,,,,,,,,,,0,8,8,27,,,right,3.84069349989295,,,,,,,,,2,044,2019_Nov_20_1144,trustSTIs,3.0.0b12,59.89257680451747,
M054C,faces/M054C.jpg,5.90524195,Dominant,Decided not to complete an assignment,influential,mismatch,incongruent,,,,,,,,,,0,9,9,9,,,right,1.569853600114584,,,,,,,,,2,044,2019_Nov_20_1144,trustSTIs,3.0.0b12,59.89257680451747,
M047C,faces/M047C.jpg,3.392641182,Nondominant,Often "checked in" on their children's mental health,outgoing,mismatch,congruent,,,,,,,,,,0,10,10,28,,,left,3.055922600440681,,,,,,,,,2,044,2019_Nov_20_1144,trustSTIs,3.0.0b12,59.89257680451747,
M027C,faces/M027C.jpg,5.03477819,Dominant,Was productive and completed four work projects in a single week,productive,explicit,congruent,,,,,,,,,,0,11,11,5,,,left,1.6531508998014033,,,,,,,,,2,044,2019_Nov_20_1144,trustSTIs,3.0.0b12,59.89257680451747,
M057C,faces/M057C.jpg,3.348286281,Nondominant,Worried that their friends talked behind their back,smart,mismatch,congruent,,,,,,,,,,0,12,12,29,,,right,1.720075599849224,,,,,,,,,2,044,2019_Nov_20_1144,trustSTIs,3.0.0b12,59.89257680451747,
M017C,faces/M017C.jpg,4.551915335,Dominant,Solved a Rubik's cube in four minutes,anxious,mismatch,congruent,,,,,,,,,,0,13,13,2,,,right,2.137530699837953,,,,,,,,,2,044,2019_Nov_20_1144,trustSTIs,3.0.0b12,59.89257680451747,
M092C,faces/M092C.jpg,3.25806462,Nondominant,Could not remember the last time they hung out with a friend,lonely,implicit,congruent,,,,,,,,,,0,14,14,35,,,right,4.375012599863112,,,,,,,,,2,044,2019_Nov_20_1144,trustSTIs,3.0.0b12,59.89257680451747,
M088C,faces/M088C.jpg,4.727318497,Dominant,Sent money to a Nigerian scammer,gullible,implicit,incongruent,,,,,,,,,,0,15,15,15,,,right,2.9724020999856293,,,,,,,,,2,044,2019_Nov_20_1144,trustSTIs,3.0.0b12,59.89257680451747,
M016C,faces/M016C.jpg,2.91229845,Nondominant,Was bold and gave a speech in support of a controversial topic,bold,explicit,incongruent,,,,,,,,,,0,16,16,21,,,left,1.7701864000409842,,,,,,,,,2,044,2019_Nov_20_1144,trustSTIs,3.0.0b12,59.89257680451747,
M066C,faces/M066C.jpg,3.618447645,Nondominant,Was incompetent and could not finish a simple work project in in time,incompetent,explicit,congruent,,,,,,,,,,0,17,17,30,,,left,2.9557177000679076,,,,,,,,,2,044,2019_Nov_20_1144,trustSTIs,3.0.0b12,59.89257680451747,
M062C,faces/M062C.jpg,4.50907254,Dominant,Stood and listened to their boss berate them,dominant,mismatch,incongruent,,,,,,,,,,0,18,18,10,,,right,2.5382920997217298,,,,,,,,,2,044,2019_Nov_20_1144,trustSTIs,3.0.0b12,59.89257680451747,
M023C,faces/M023C.jpg,5.23991936,Dominant,Was independent and declined to ask for help when solving a difficult problem,independent,explicit,congruent,,,,,,,,,,0,19,19,4,,,left,2.5382897001691163,,,,,,,,,2,044,2019_Nov_20_1144,trustSTIs,3.0.0b12,59.89257680451747,
M078C,faces/M078C.jpg,3.31552405,Nondominant,Could not win an argument with a coworker,unconvincing,implicit,congruent,,,,,,,,,,0,20,20,33,,,right,5.7942637000232935,,,,,,,,,2,044,2019_Nov_20_1144,trustSTIs,3.0.0b12,59.89257680451747,
M009C,faces/M009C.jpg,5.208669305,Dominant,Introduced himself to everyone at the party,worrying,mismatch,congruent,,,,,,,,,,0,21,21,1,,,right,1.7034269999712706,,,,,,,,,2,044,2019_Nov_20_1144,trustSTIs,3.0.0b12,59.89257680451747,
M074C,faces/M074C.jpg,4.90020156,Dominant,Was conformist and dressed in the same style as all of their friends,conformist,explicit,incongruent,,,,,,,,,,0,22,22,14,,,right,1.4362828000448644,,,,,,,,,2,044,2019_Nov_20_1144,trustSTIs,3.0.0b12,59.89257680451747,
M010C,faces/M010C.jpg,3.430947582,Nondominant,Proclaimed himself their group's leader,submissive,mismatch,incongruent,,,,,,,,,,0,23,23,19,,,left,2.3545770002529025,,,,,,,,,2,044,2019_Nov_20_1144,trustSTIs,3.0.0b12,59.89257680451747,
M024C,faces/M024C.jpg,3.67187497,Nondominant,Was proud and believed that they were the most intelligent in their class,proud,explicit,incongruent,,,,,,,,,,0,24,24,23,,,left,5.543782700318843,,,,,,,,,2,044,2019_Nov_20_1144,trustSTIs,3.0.0b12,59.89257680451747,
M001C,faces/M001C.jpg,3.061491945,Nondominant,Convinced their group to follow their lead,lazy,mismatch,incongruent,,,,,,,,,,0,25,25,18,,,right,1.9372033001855016,,,,,,,,,2,044,2019_Nov_20_1144,trustSTIs,3.0.0b12,59.89257680451747,
M034C,faces/M034C.jpg,3.175403159,Nondominant,Stood up for their beliefs even when it was unpopular,courageous,implicit,incongruent,,,,,,,,,,0,26,26,25,,,right,3.089312099851668,,,,,,,,,2,044,2019_Nov_20_1144,trustSTIs,3.0.0b12,59.89257680451747,
M070C,faces/M070C.jpg,3.235887104,Nondominant,Was weak and could not lift a 50lb bag of cement,weak,explicit,congruent,,,,,,,,,,0,27,27,31,,,left,2.5550258001312613,,,,,,,,,2,044,2019_Nov_20_1144,trustSTIs,3.0.0b12,59.89257680451747,
M014C,faces/M014C.jpg,3.179939585,Nondominant,Attended a rally to oppose a bigoted politician,absent-minded,mismatch,incongruent,,,,,,,,,,0,28,28,20,,,right,3.3230281001888216,,,,,,,,,2,044,2019_Nov_20_1144,trustSTIs,3.0.0b12,59.89257680451747,
M050C,faces/M050C.jpg,4.80090731,Dominant,Scored seven touchdowns in a single game,talented,implicit,congruent,,,,,,,,,,0,29,29,8,,,left,1.4028447000309825,,,,,,,,,2,044,2019_Nov_20_1144,trustSTIs,3.0.0b12,59.89257680451747,
M067C,faces/M067C.jpg,4.70614921,Dominant,Forgot their spouse's birthday,purposeful,mismatch,incongruent,,,,,,,,,,0,30,30,11,,,left,2.671888899989426,,,,,,,,,2,044,2019_Nov_20_1144,trustSTIs,3.0.0b12,59.89257680451747,
M072C,faces/M072C.jpg,5.269657165,Dominant,Was unsociable and declined to attend a friend's holiday party,unsociable,explicit,incongruent,,,,,,,,,,0,31,31,13,,,left,2.3881757999770343,,,,,,,,,2,044,2019_Nov_20_1144,trustSTIs,3.0.0b12,59.89257680451747,
M090C,faces/M090C.jpg,4.571572515,Dominant,Believed they could build a flying car,foolish,implicit,incongruent,,,,,,,,,,0,32,32,16,,,right,2.070688399951905,,,,,,,,,2,044,2019_Nov_20_1144,trustSTIs,3.0.0b12,59.89257680451747,
M095C,faces/M095C.jpg,4.7610887,Dominant,Did not want to speak up about their own opinions,soft-spoken,implicit,incongruent,,,,,,,,,,0,33,33,17,,,right,2.221028500236571,,,,,,,,,2,044,2019_Nov_20_1144,trustSTIs,3.0.0b12,59.89257680451747,
M002C,faces/M002C.jpg,5.85635085,Dominant,Went skydiving without hesitation,oversensitive,mismatch,congruent,,,,,,,,,,0,34,34,0,,,left,1.6199161000549793,,,,,,,,,2,044,2019_Nov_20_1144,trustSTIs,3.0.0b12,59.89257680451747,
M030C,faces/M030C.jpg,4.779233991,Dominant,Ordered food for everyone at the dinner table,decisive,implicit,congruent,,,,,,,,,,0,35,35,6,,,left,1.2859434997662902,,,,,,,,,2,044,2019_Nov_20_1144,trustSTIs,3.0.0b12,59.89257680451747,
,,,,,,,,,,,,,,,,,,,,,,,,,20,4.575,,,,,,,2,044,2019_Nov_20_1144,trustSTIs,3.0.0b12,59.89257680451747,
,,,,,,,,,,,,,,,,,,,,,,,,,,,left,2.888866700232029,,,,,2,044,2019_Nov_20_1144,trustSTIs,3.0.0b12,59.89257680451747,
,,,,,,,,,,,,,,,,,,,,,,,,,,,,,left,3.7073329999111593,,,2,044,2019_Nov_20_1144,trustSTIs,3.0.0b12,59.89257680451747,
,,,,,,,,,,,,,,,,,,,,,,,,,,,,,,,a,3.0726954001002014,2,044,2019_Nov_20_1144,trustSTIs,3.0.0b12,59.89257680451747,
