stimID,face,mDominance,dominance,behavior,trait,trialType,congruence,dist,encodingLoop.thisRepN,encodingLoop.thisTrialN,encodingLoop.thisN,encodingLoop.thisIndex,distLoop.thisRepN,distLoop.thisTrialN,distLoop.thisN,distLoop.thisIndex,recognitionLoop.thisRepN,recognitionLoop.thisTrialN,recognitionLoop.thisN,recognitionLoop.thisIndex,distAnswers.keys,distAnswers.rt,keyResp.keys,keyResp.rt,ageRate.response,ageRate.rt,eflResp.keys,eflResp.rt,genderResp.keys,genderResp.rt,ethResp.keys,ethResp.rt,condition,participant,date,expName,psychopyVersion,frameRate,
M038C,faces/M039C.jpg,5.087197565,Dominant,Afraid of being hit by a car when crossing a street,confident,mismatch,incongruent,,0,0,0,7,,,,,,,,,,,,,,,,,,,,,4,058,2019_Nov_21_1214,trustSTIs,3.0.0b12,59.90836424939983,
M074C,faces/M074C.jpg,4.90020156,Dominant,Believed that they were the most intelligent in their class,proud,implicit,congruent,,0,1,1,14,,,,,,,,,,,,,,,,,,,,,4,058,2019_Nov_21_1214,trustSTIs,3.0.0b12,59.90836424939983,
M009C,faces/M009C.jpg,5.208669305,Dominant,Was worrying and often "checked in" on their children's mental health,worrying,explicit,incongruent,,0,2,2,1,,,,,,,,,,,,,,,,,,,,,4,058,2019_Nov_21_1214,trustSTIs,3.0.0b12,59.90836424939983,
M072C,faces/M072C.jpg,5.269657165,Dominant,Pedaled harder to ensure they won the race,determined,implicit,congruent,,0,3,3,13,,,,,,,,,,,,,,,,,,,,,4,058,2019_Nov_21_1214,trustSTIs,3.0.0b12,59.90836424939983,
M027C,faces/M027C.jpg,5.03477819,Dominant,Preferred not to speak up during a class discussion,quiet,implicit,incongruent,,0,4,4,5,,,,,,,,,,,,,,,,,,,,,4,058,2019_Nov_21_1214,trustSTIs,3.0.0b12,59.90836424939983,
M070C,faces/M070C.jpg,3.235887104,Nondominant,Declined to ask for help when solving a difficult problem,independent,implicit,incongruent,,0,5,5,31,,,,,,,,,,,,,,,,,,,,,4,058,2019_Nov_21_1214,trustSTIs,3.0.0b12,59.90836424939983,
M017C,faces/M017C.jpg,4.551915335,Dominant,Was anxious and worried that their friends talked behind their back,anxious,explicit,incongruent,,0,6,6,2,,,,,,,,,,,,,,,,,,,,,4,058,2019_Nov_21_1214,trustSTIs,3.0.0b12,59.90836424939983,
M021C,faces/M021C.jpg,3.62298385,Nondominant,Declined to attend a friend's holiday party,unsociable,implicit,congruent,,0,7,7,22,,,,,,,,,,,,,,,,,,,,,4,058,2019_Nov_21_1214,trustSTIs,3.0.0b12,59.90836424939983,
M067C,faces/M067C.jpg,4.70614921,Dominant,Was purposeeful and attended a rally to oppose a bigoted politician,purposeful,explicit,congruent,,0,8,8,11,,,,,,,,,,,,,,,,,,,,,4,058,2019_Nov_21_1214,trustSTIs,3.0.0b12,59.90836424939983,
M057C,faces/M057C.jpg,3.348286281,Nondominant,Was smart and solved a Rubik's cube in four minutes,smart,explicit,incongruent,,0,9,9,29,,,,,,,,,,,,,,,,,,,,,4,058,2019_Nov_21_1214,trustSTIs,3.0.0b12,59.90836424939983,
M054C,faces/M054C.jpg,5.90524195,Dominant,Was influential and convinced their group to follow their lead,influential,explicit,congruent,,0,10,10,9,,,,,,,,,,,,,,,,,,,,,4,058,2019_Nov_21_1214,trustSTIs,3.0.0b12,59.90836424939983,
M088C,faces/M088C.jpg,4.727318497,Dominant,Won a debate in record time,gullible,mismatch,congruent,,0,11,11,15,,,,,,,,,,,,,,,,,,,,,4,058,2019_Nov_21_1214,trustSTIs,3.0.0b12,59.90836424939983,
M089C,faces/M089C.jpg,2.621975722,Nondominant,Was sure of all of their answers on the exam,nervous,mismatch,incongruent,,0,12,12,34,,,,,,,,,,,,,,,,,,,,,4,058,2019_Nov_21_1214,trustSTIs,3.0.0b12,59.90836424939983,
M022C,faces/M022C.jpg,5.63911285,Dominant,Could not finish a simple work project in in time,incompetent,implicit,incongruent,,0,13,13,3,,,,,,,,,,,,,,,,,,,,,4,058,2019_Nov_21_1214,trustSTIs,3.0.0b12,59.90836424939983,
M092C,faces/M092C.jpg,3.25806462,Nondominant,Scored seven touchdowns in a single game,lonely,mismatch,incongruent,,0,14,14,35,,,,,,,,,,,,,,,,,,,,,4,058,2019_Nov_21_1214,trustSTIs,3.0.0b12,59.90836424939983,
M062C,faces/M062C.jpg,4.50907254,Dominant,Was dominant and proclaimed himself their group's leader,dominant,explicit,congruent,,0,15,15,10,,,,,,,,,,,,,,,,,,,,,4,058,2019_Nov_21_1214,trustSTIs,3.0.0b12,59.90836424939983,
M023C,faces/M023C.jpg,5.23991936,Dominant,Could not lift a 50lb bag of cement,weak,implicit,incongruent,,0,16,16,4,,,,,,,,,,,,,,,,,,,,,4,058,2019_Nov_21_1214,trustSTIs,3.0.0b12,59.90836424939983,
M036C,faces/M036C.jpg,2.442540253,Nondominant,Did not want to speak up about their own opinions,competent,mismatch,congruent,,0,17,17,26,,,,,,,,,,,,,,,,,,,,,4,058,2019_Nov_21_1214,trustSTIs,3.0.0b12,59.90836424939983,
M016C,faces/M016C.jpg,2.91229845,Nondominant,Decided to avoid an argument out of a fear of losing,passive,implicit,congruent,,0,18,18,21,,,,,,,,,,,,,,,,,,,,,4,058,2019_Nov_21_1214,trustSTIs,3.0.0b12,59.90836424939983,
M073C,faces/M073C.jpg,3.661794355,Nondominant,Completed four work projects in a single week,productive,implicit,incongruent,,0,19,19,32,,,,,,,,,,,,,,,,,,,,,4,058,2019_Nov_21_1214,trustSTIs,3.0.0b12,59.90836424939983,
M047C,faces/M047C.jpg,3.392641182,Nondominant,Was outgoing and introduced himself to everyone at the party,outgoing,explicit,incongruent,,0,20,20,28,,,,,,,,,,,,,,,,,,,,,4,058,2019_Nov_21_1214,trustSTIs,3.0.0b12,59.90836424939983,
M095C,faces/M095C.jpg,4.7610887,Dominant,Spoke five languages and could read three more,soft-spoken,mismatch,congruent,,0,21,21,17,,,,,,,,,,,,,,,,,,,,,4,058,2019_Nov_21_1214,trustSTIs,3.0.0b12,59.90836424939983,
M002C,faces/M002C.jpg,5.85635085,Dominant,Was oversensitive and could not handle criticism without crying,oversensitive,explicit,incongruent,,0,22,22,0,,,,,,,,,,,,,,,,,,,,,4,058,2019_Nov_21_1214,trustSTIs,3.0.0b12,59.90836424939983,
M078C,faces/M078C.jpg,3.31552405,Nondominant,Ordered food for everyone at the dinner table,unconvincing,mismatch,incongruent,,0,23,23,33,,,,,,,,,,,,,,,,,,,,,4,058,2019_Nov_21_1214,trustSTIs,3.0.0b12,59.90836424939983,
M042C,faces/M042C.jpg,3.357862932,Nondominant,Was fearless and went skydiving without hesitation,fearless,explicit,incongruent,,0,24,24,27,,,,,,,,,,,,,,,,,,,,,4,058,2019_Nov_21_1214,trustSTIs,3.0.0b12,59.90836424939983,
M031C,faces/M031C.jpg,2.62550405,Nondominant,Sent money to a Nigerian scammer,persuasive,mismatch,congruent,,0,25,25,24,,,,,,,,,,,,,,,,,,,,,4,058,2019_Nov_21_1214,trustSTIs,3.0.0b12,59.90836424939983,
M014C,faces/M014C.jpg,3.179939585,Nondominant,Was absent-minded and forgot their spouse's birthday,absent-minded,explicit,congruent,,0,26,26,20,,,,,,,,,,,,,,,,,,,,,4,058,2019_Nov_21_1214,trustSTIs,3.0.0b12,59.90836424939983,
M010C,faces/M010C.jpg,3.430947582,Nondominant,Was submissive and stood and listened to their boss berate them,submissive,explicit,congruent,,0,27,27,19,,,,,,,,,,,,,,,,,,,,,4,058,2019_Nov_21_1214,trustSTIs,3.0.0b12,59.90836424939983,
M034C,faces/M034C.jpg,3.175403159,Nondominant,Believed they could build a flying car,courageous,mismatch,congruent,,0,28,28,25,,,,,,,,,,,,,,,,,,,,,4,058,2019_Nov_21_1214,trustSTIs,3.0.0b12,59.90836424939983,
M001C,faces/M001C.jpg,3.061491945,Nondominant,Was lazy and decided not to complete an assignment,lazy,explicit,congruent,,0,29,29,18,,,,,,,,,,,,,,,,,,,,,4,058,2019_Nov_21_1214,trustSTIs,3.0.0b12,59.90836424939983,
M069C,faces/M069C.jpg,4.9460686,Dominant,Gave a speech in support of a controversial topic,bold,implicit,congruent,,0,30,30,12,,,,,,,,,,,,,,,,,,,,,4,058,2019_Nov_21_1214,trustSTIs,3.0.0b12,59.90836424939983,
M090C,faces/M090C.jpg,4.571572515,Dominant,Stood up for their beliefs even when it was unpopular,foolish,mismatch,congruent,,0,31,31,16,,,,,,,,,,,,,,,,,,,,,4,058,2019_Nov_21_1214,trustSTIs,3.0.0b12,59.90836424939983,
M030C,faces/M030C.jpg,4.779233991,Dominant,Could not win an argument with a coworker,decisive,mismatch,incongruent,,0,32,32,6,,,,,,,,,,,,,,,,,,,,,4,058,2019_Nov_21_1214,trustSTIs,3.0.0b12,59.90836424939983,
M066C,faces/M066C.jpg,3.618447645,Nondominant,Took over their work team when they needed a leader,assertive,implicit,incongruent,,0,33,33,30,,,,,,,,,,,,,,,,,,,,,4,058,2019_Nov_21_1214,trustSTIs,3.0.0b12,59.90836424939983,
M050C,faces/M050C.jpg,4.80090731,Dominant,Could not remember the last time they hung out with a friend,talented,mismatch,incongruent,,0,34,34,8,,,,,,,,,,,,,,,,,,,,,4,058,2019_Nov_21_1214,trustSTIs,3.0.0b12,59.90836424939983,
M024C,faces/M024C.jpg,3.67187497,Nondominant,Dressed in the same style as all of their friends,conformist,implicit,congruent,,0,35,35,23,,,,,,,,,,,,,,,,,,,,,4,058,2019_Nov_21_1214,trustSTIs,3.0.0b12,59.90836424939983,
,,,,,,,,√49 x 7 = ?,,,,,0,0,0,6,,,,,['space'],[23.260255299974233],,,,,,,,,,,4,058,2019_Nov_21_1214,trustSTIs,3.0.0b12,59.90836424939983,
,,,,,,,,54 ÷ 9 = ?,,,,,0,1,1,4,,,,,['space'],[17.46603439981118],,,,,,,,,,,4,058,2019_Nov_21_1214,trustSTIs,3.0.0b12,59.90836424939983,
,,,,,,,,(5 x 4) - 12 = ?,,,,,0,2,2,9,,,,,['space'],[15.428878699894994],,,,,,,,,,,4,058,2019_Nov_21_1214,trustSTIs,3.0.0b12,59.90836424939983,
,,,,,,,,(5 + 7) ÷ 4 = ?,,,,,0,3,3,1,,,,,['space'],[11.839071899652481],,,,,,,,,,,4,058,2019_Nov_21_1214,trustSTIs,3.0.0b12,59.90836424939983,
,,,,,,,,(24 ÷ 3) x 5 = ?,,,,,0,4,4,5,,,,,['space'],[13.375122500117868],,,,,,,,,,,4,058,2019_Nov_21_1214,trustSTIs,3.0.0b12,59.90836424939983,
,,,,,,,,6 * 9 = ?,,,,,0,5,5,2,,,,,['space'],[12.122857099864632],,,,,,,,,,,4,058,2019_Nov_21_1214,trustSTIs,3.0.0b12,59.90836424939983,
,,,,,,,,√100 = ?,,,,,0,6,6,3,,,,,['space'],[12.039366700220853],,,,,,,,,,,4,058,2019_Nov_21_1214,trustSTIs,3.0.0b12,59.90836424939983,
,,,,,,,,3² = ?,,,,,0,7,7,0,,,,,['space'],[10.954079200048],,,,,,,,,,,4,058,2019_Nov_21_1214,trustSTIs,3.0.0b12,59.90836424939983,
,,,,,,,,169 ÷ 13 = ?,,,,,0,8,8,8,,,,,['space'],[12.10620759986341],,,,,,,,,,,4,058,2019_Nov_21_1214,trustSTIs,3.0.0b12,59.90836424939983,
,,,,,,,,7³ = ?,,,,,0,9,9,7,,,,,['space'],[36.300649399869144],,,,,,,,,,,4,058,2019_Nov_21_1214,trustSTIs,3.0.0b12,59.90836424939983,
M073C,faces/M073C.jpg,3.661794355,Nondominant,Completed four work projects in a single week,productive,implicit,incongruent,,,,,,,,,,0,0,0,32,,,left,5.310064899735153,,,,,,,,,4,058,2019_Nov_21_1214,trustSTIs,3.0.0b12,59.90836424939983,
M031C,faces/M031C.jpg,2.62550405,Nondominant,Sent money to a Nigerian scammer,persuasive,mismatch,congruent,,,,,,,,,,0,1,1,24,,,right,12.506742199882865,,,,,,,,,4,058,2019_Nov_21_1214,trustSTIs,3.0.0b12,59.90836424939983,
M050C,faces/M050C.jpg,4.80090731,Dominant,Could not remember the last time they hung out with a friend,talented,mismatch,incongruent,,,,,,,,,,0,2,2,8,,,right,3.0894371001049876,,,,,,,,,4,058,2019_Nov_21_1214,trustSTIs,3.0.0b12,59.90836424939983,
M095C,faces/M095C.jpg,4.7610887,Dominant,Spoke five languages and could read three more,soft-spoken,mismatch,congruent,,,,,,,,,,0,3,3,17,,,right,9.318323299754411,,,,,,,,,4,058,2019_Nov_21_1214,trustSTIs,3.0.0b12,59.90836424939983,
M090C,faces/M090C.jpg,4.571572515,Dominant,Stood up for their beliefs even when it was unpopular,foolish,mismatch,congruent,,,,,,,,,,0,4,4,16,,,right,10.135711399838328,,,,,,,,,4,058,2019_Nov_21_1214,trustSTIs,3.0.0b12,59.90836424939983,
M057C,faces/M057C.jpg,3.348286281,Nondominant,Was smart and solved a Rubik's cube in four minutes,smart,explicit,incongruent,,,,,,,,,,0,5,5,29,,,left,5.10968350013718,,,,,,,,,4,058,2019_Nov_21_1214,trustSTIs,3.0.0b12,59.90836424939983,
M042C,faces/M042C.jpg,3.357862932,Nondominant,Was fearless and went skydiving without hesitation,fearless,explicit,incongruent,,,,,,,,,,0,6,6,27,,,left,5.009627199731767,,,,,,,,,4,058,2019_Nov_21_1214,trustSTIs,3.0.0b12,59.90836424939983,
M017C,faces/M017C.jpg,4.551915335,Dominant,Was anxious and worried that their friends talked behind their back,anxious,explicit,incongruent,,,,,,,,,,0,7,7,2,,,right,5.243287699762732,,,,,,,,,4,058,2019_Nov_21_1214,trustSTIs,3.0.0b12,59.90836424939983,
M088C,faces/M088C.jpg,4.727318497,Dominant,Won a debate in record time,gullible,mismatch,congruent,,,,,,,,,,0,8,8,15,,,left,5.0095465001650155,,,,,,,,,4,058,2019_Nov_21_1214,trustSTIs,3.0.0b12,59.90836424939983,
M036C,faces/M036C.jpg,2.442540253,Nondominant,Did not want to speak up about their own opinions,competent,mismatch,congruent,,,,,,,,,,0,9,9,26,,,right,4.007698200177401,,,,,,,,,4,058,2019_Nov_21_1214,trustSTIs,3.0.0b12,59.90836424939983,
M070C,faces/M070C.jpg,3.235887104,Nondominant,Declined to ask for help when solving a difficult problem,independent,implicit,incongruent,,,,,,,,,,0,10,10,31,,,left,3.122619000263512,,,,,,,,,4,058,2019_Nov_21_1214,trustSTIs,3.0.0b12,59.90836424939983,
M024C,faces/M024C.jpg,3.67187497,Nondominant,Dressed in the same style as all of their friends,conformist,implicit,congruent,,,,,,,,,,0,11,11,23,,,left,3.5067701996304095,,,,,,,,,4,058,2019_Nov_21_1214,trustSTIs,3.0.0b12,59.90836424939983,
M014C,faces/M014C.jpg,3.179939585,Nondominant,Was absent-minded and forgot their spouse's birthday,absent-minded,explicit,congruent,,,,,,,,,,0,12,12,20,,,left,2.6550229000858963,,,,,,,,,4,058,2019_Nov_21_1214,trustSTIs,3.0.0b12,59.90836424939983,
M067C,faces/M067C.jpg,4.70614921,Dominant,Was purposeeful and attended a rally to oppose a bigoted politician,purposeful,explicit,congruent,,,,,,,,,,0,13,13,11,,,right,2.1542031997814775,,,,,,,,,4,058,2019_Nov_21_1214,trustSTIs,3.0.0b12,59.90836424939983,
M016C,faces/M016C.jpg,2.91229845,Nondominant,Decided to avoid an argument out of a fear of losing,passive,implicit,congruent,,,,,,,,,,0,14,14,21,,,left,1.9037742000073195,,,,,,,,,4,058,2019_Nov_21_1214,trustSTIs,3.0.0b12,59.90836424939983,
M092C,faces/M092C.jpg,3.25806462,Nondominant,Scored seven touchdowns in a single game,lonely,mismatch,incongruent,,,,,,,,,,0,15,15,35,,,right,2.855621200054884,,,,,,,,,4,058,2019_Nov_21_1214,trustSTIs,3.0.0b12,59.90836424939983,
M001C,faces/M001C.jpg,3.061491945,Nondominant,Was lazy and decided not to complete an assignment,lazy,explicit,congruent,,,,,,,,,,0,16,16,18,,,right,3.8573974003084004,,,,,,,,,4,058,2019_Nov_21_1214,trustSTIs,3.0.0b12,59.90836424939983,
M038C,faces/M039C.jpg,5.087197565,Dominant,Afraid of being hit by a car when crossing a street,confident,mismatch,incongruent,,,,,,,,,,0,17,17,7,,,left,8.081921100150794,,,,,,,,,4,058,2019_Nov_21_1214,trustSTIs,3.0.0b12,59.90836424939983,
M069C,faces/M069C.jpg,4.9460686,Dominant,Gave a speech in support of a controversial topic,bold,implicit,congruent,,,,,,,,,,0,18,18,12,,,left,2.8388692000880837,,,,,,,,,4,058,2019_Nov_21_1214,trustSTIs,3.0.0b12,59.90836424939983,
M002C,faces/M002C.jpg,5.85635085,Dominant,Was oversensitive and could not handle criticism without crying,oversensitive,explicit,incongruent,,,,,,,,,,0,19,19,0,,,left,2.6885839998722076,,,,,,,,,4,058,2019_Nov_21_1214,trustSTIs,3.0.0b12,59.90836424939983,
M047C,faces/M047C.jpg,3.392641182,Nondominant,Was outgoing and introduced himself to everyone at the party,outgoing,explicit,incongruent,,,,,,,,,,0,20,20,28,,,right,2.688943199813366,,,,,,,,,4,058,2019_Nov_21_1214,trustSTIs,3.0.0b12,59.90836424939983,
M062C,faces/M062C.jpg,4.50907254,Dominant,Was dominant and proclaimed himself their group's leader,dominant,explicit,congruent,,,,,,,,,,0,21,21,10,,,left,5.17654940020293,,,,,,,,,4,058,2019_Nov_21_1214,trustSTIs,3.0.0b12,59.90836424939983,
M030C,faces/M030C.jpg,4.779233991,Dominant,Could not win an argument with a coworker,decisive,mismatch,incongruent,,,,,,,,,,0,22,22,6,,,right,2.3880508998408914,,,,,,,,,4,058,2019_Nov_21_1214,trustSTIs,3.0.0b12,59.90836424939983,
M022C,faces/M022C.jpg,5.63911285,Dominant,Could not finish a simple work project in in time,incompetent,implicit,incongruent,,,,,,,,,,0,23,23,3,,,left,5.076345100067556,,,,,,,,,4,058,2019_Nov_21_1214,trustSTIs,3.0.0b12,59.90836424939983,
M034C,faces/M034C.jpg,3.175403159,Nondominant,Believed they could build a flying car,courageous,mismatch,congruent,,,,,,,,,,0,24,24,25,,,right,3.7405300000682473,,,,,,,,,4,058,2019_Nov_21_1214,trustSTIs,3.0.0b12,59.90836424939983,
M066C,faces/M066C.jpg,3.618447645,Nondominant,Took over their work team when they needed a leader,assertive,implicit,incongruent,,,,,,,,,,0,25,25,30,,,right,3.890926499851048,,,,,,,,,4,058,2019_Nov_21_1214,trustSTIs,3.0.0b12,59.90836424939983,
M009C,faces/M009C.jpg,5.208669305,Dominant,Was worrying and often "checked in" on their children's mental health,worrying,explicit,incongruent,,,,,,,,,,0,26,26,1,,,left,2.120861600153148,,,,,,,,,4,058,2019_Nov_21_1214,trustSTIs,3.0.0b12,59.90836424939983,
M021C,faces/M021C.jpg,3.62298385,Nondominant,Declined to attend a friend's holiday party,unsociable,implicit,congruent,,,,,,,,,,0,27,27,22,,,right,5.944580000359565,,,,,,,,,4,058,2019_Nov_21_1214,trustSTIs,3.0.0b12,59.90836424939983,
M010C,faces/M010C.jpg,3.430947582,Nondominant,Was submissive and stood and listened to their boss berate them,submissive,explicit,congruent,,,,,,,,,,0,28,28,19,,,left,7.347223999910057,,,,,,,,,4,058,2019_Nov_21_1214,trustSTIs,3.0.0b12,59.90836424939983,
M054C,faces/M054C.jpg,5.90524195,Dominant,Was influential and convinced their group to follow their lead,influential,explicit,congruent,,,,,,,,,,0,29,29,9,,,left,1.4695797003805637,,,,,,,,,4,058,2019_Nov_21_1214,trustSTIs,3.0.0b12,59.90836424939983,
M023C,faces/M023C.jpg,5.23991936,Dominant,Could not lift a 50lb bag of cement,weak,implicit,incongruent,,,,,,,,,,0,30,30,4,,,right,3.8574057002551854,,,,,,,,,4,058,2019_Nov_21_1214,trustSTIs,3.0.0b12,59.90836424939983,
M074C,faces/M074C.jpg,4.90020156,Dominant,Believed that they were the most intelligent in their class,proud,implicit,congruent,,,,,,,,,,0,31,31,14,,,left,6.161515699699521,,,,,,,,,4,058,2019_Nov_21_1214,trustSTIs,3.0.0b12,59.90836424939983,
M078C,faces/M078C.jpg,3.31552405,Nondominant,Ordered food for everyone at the dinner table,unconvincing,mismatch,incongruent,,,,,,,,,,0,32,32,33,,,right,1.9372697998769581,,,,,,,,,4,058,2019_Nov_21_1214,trustSTIs,3.0.0b12,59.90836424939983,
M027C,faces/M027C.jpg,5.03477819,Dominant,Preferred not to speak up during a class discussion,quiet,implicit,incongruent,,,,,,,,,,0,33,33,5,,,left,5.493705799803138,,,,,,,,,4,058,2019_Nov_21_1214,trustSTIs,3.0.0b12,59.90836424939983,
M072C,faces/M072C.jpg,5.269657165,Dominant,Pedaled harder to ensure they won the race,determined,implicit,congruent,,,,,,,,,,0,34,34,13,,,left,2.0708021000027657,,,,,,,,,4,058,2019_Nov_21_1214,trustSTIs,3.0.0b12,59.90836424939983,
M089C,faces/M089C.jpg,2.621975722,Nondominant,Was sure of all of their answers on the exam,nervous,mismatch,incongruent,,,,,,,,,,0,35,35,34,,,right,4.959463800303638,,,,,,,,,4,058,2019_Nov_21_1214,trustSTIs,3.0.0b12,59.90836424939983,
,,,,,,,,,,,,,,,,,,,,,,,,,18,4.625,,,,,,,4,058,2019_Nov_21_1214,trustSTIs,3.0.0b12,59.90836424939983,
,,,,,,,,,,,,,,,,,,,,,,,,,,,left,4.0580840995535254,,,,,4,058,2019_Nov_21_1214,trustSTIs,3.0.0b12,59.90836424939983,
,,,,,,,,,,,,,,,,,,,,,,,,,,,,,right,3.289758499711752,,,4,058,2019_Nov_21_1214,trustSTIs,3.0.0b12,59.90836424939983,
,,,,,,,,,,,,,,,,,,,,,,,,,,,,,,,a,3.389859599992633,4,058,2019_Nov_21_1214,trustSTIs,3.0.0b12,59.90836424939983,
