stimID,face,mDominance,dominance,behavior,trait,trialType,congruence,dist,encodingLoop.thisRepN,encodingLoop.thisTrialN,encodingLoop.thisN,encodingLoop.thisIndex,distLoop.thisRepN,distLoop.thisTrialN,distLoop.thisN,distLoop.thisIndex,recognitionLoop.thisRepN,recognitionLoop.thisTrialN,recognitionLoop.thisN,recognitionLoop.thisIndex,distAnswers.keys,distAnswers.rt,keyResp.keys,keyResp.rt,ageRate.response,ageRate.rt,eflResp.keys,eflResp.rt,genderResp.keys,genderResp.rt,ethResp.keys,ethResp.rt,condition,participant,date,expName,psychopyVersion,frameRate,
M050C,faces/M050C.jpg,4.80090731,Dominant,Scored seven touchdowns in a single game,talented,implicit,congruent,,0,0,0,8,,,,,,,,,,,,,,,,,,,,,2,068,2019_Nov_25_1212,trustSTIs,3.0.0b12,60.09558416062158,
M062C,faces/M062C.jpg,4.50907254,Dominant,Stood and listened to their boss berate them,dominant,mismatch,incongruent,,0,1,1,10,,,,,,,,,,,,,,,,,,,,,2,068,2019_Nov_25_1212,trustSTIs,3.0.0b12,60.09558416062158,
M009C,faces/M009C.jpg,5.208669305,Dominant,Introduced himself to everyone at the party,worrying,mismatch,congruent,,0,2,2,1,,,,,,,,,,,,,,,,,,,,,2,068,2019_Nov_25_1212,trustSTIs,3.0.0b12,60.09558416062158,
M001C,faces/M001C.jpg,3.061491945,Nondominant,Convinced their group to follow their lead,lazy,mismatch,incongruent,,0,3,3,18,,,,,,,,,,,,,,,,,,,,,2,068,2019_Nov_25_1212,trustSTIs,3.0.0b12,60.09558416062158,
M023C,faces/M023C.jpg,5.23991936,Dominant,Was independent and declined to ask for help when solving a difficult problem,independent,explicit,congruent,,0,4,4,4,,,,,,,,,,,,,,,,,,,,,2,068,2019_Nov_25_1212,trustSTIs,3.0.0b12,60.09558416062158,
M014C,faces/M014C.jpg,3.179939585,Nondominant,Attended a rally to oppose a bigoted politician,absent-minded,mismatch,incongruent,,0,5,5,20,,,,,,,,,,,,,,,,,,,,,2,068,2019_Nov_25_1212,trustSTIs,3.0.0b12,60.09558416062158,
M021C,faces/M021C.jpg,3.62298385,Nondominant,Was determined and pedaled harder to ensure they won the race,determined,explicit,incongruent,,0,6,6,22,,,,,,,,,,,,,,,,,,,,,2,068,2019_Nov_25_1212,trustSTIs,3.0.0b12,60.09558416062158,
M095C,faces/M095C.jpg,4.7610887,Dominant,Did not want to speak up about their own opinions,soft-spoken,implicit,incongruent,,0,7,7,17,,,,,,,,,,,,,,,,,,,,,2,068,2019_Nov_25_1212,trustSTIs,3.0.0b12,60.09558416062158,
M016C,faces/M016C.jpg,2.91229845,Nondominant,Was bold and gave a speech in support of a controversial topic,bold,explicit,incongruent,,0,8,8,21,,,,,,,,,,,,,,,,,,,,,2,068,2019_Nov_25_1212,trustSTIs,3.0.0b12,60.09558416062158,
M069C,faces/M069C.jpg,4.9460686,Dominant,Was passive and decided to avoid an argument out of a fear of losing,passive,explicit,incongruent,,0,9,9,12,,,,,,,,,,,,,,,,,,,,,2,068,2019_Nov_25_1212,trustSTIs,3.0.0b12,60.09558416062158,
M017C,faces/M017C.jpg,4.551915335,Dominant,Solved a Rubik's cube in four minutes,anxious,mismatch,congruent,,0,10,10,2,,,,,,,,,,,,,,,,,,,,,2,068,2019_Nov_25_1212,trustSTIs,3.0.0b12,60.09558416062158,
M038C,faces/M039C.jpg,5.087197565,Dominant,Was sure of all of their answers on the exam,confident,implicit,congruent,,0,11,11,7,,,,,,,,,,,,,,,,,,,,,2,068,2019_Nov_25_1212,trustSTIs,3.0.0b12,60.09558416062158,
M054C,faces/M054C.jpg,5.90524195,Dominant,Decided not to complete an assignment,influential,mismatch,incongruent,,0,12,12,9,,,,,,,,,,,,,,,,,,,,,2,068,2019_Nov_25_1212,trustSTIs,3.0.0b12,60.09558416062158,
M057C,faces/M057C.jpg,3.348286281,Nondominant,Worried that their friends talked behind their back,smart,mismatch,congruent,,0,13,13,29,,,,,,,,,,,,,,,,,,,,,2,068,2019_Nov_25_1212,trustSTIs,3.0.0b12,60.09558416062158,
M072C,faces/M072C.jpg,5.269657165,Dominant,Was unsociable and declined to attend a friend's holiday party,unsociable,explicit,incongruent,,0,14,14,13,,,,,,,,,,,,,,,,,,,,,2,068,2019_Nov_25_1212,trustSTIs,3.0.0b12,60.09558416062158,
M031C,faces/M031C.jpg,2.62550405,Nondominant,Won a debate in record time,persuasive,implicit,incongruent,,0,15,15,24,,,,,,,,,,,,,,,,,,,,,2,068,2019_Nov_25_1212,trustSTIs,3.0.0b12,60.09558416062158,
M074C,faces/M074C.jpg,4.90020156,Dominant,Was conformist and dressed in the same style as all of their friends,conformist,explicit,incongruent,,0,16,16,14,,,,,,,,,,,,,,,,,,,,,2,068,2019_Nov_25_1212,trustSTIs,3.0.0b12,60.09558416062158,
M030C,faces/M030C.jpg,4.779233991,Dominant,Ordered food for everyone at the dinner table,decisive,implicit,congruent,,0,17,17,6,,,,,,,,,,,,,,,,,,,,,2,068,2019_Nov_25_1212,trustSTIs,3.0.0b12,60.09558416062158,
M034C,faces/M034C.jpg,3.175403159,Nondominant,Stood up for their beliefs even when it was unpopular,courageous,implicit,incongruent,,0,18,18,25,,,,,,,,,,,,,,,,,,,,,2,068,2019_Nov_25_1212,trustSTIs,3.0.0b12,60.09558416062158,
M024C,faces/M024C.jpg,3.67187497,Nondominant,Was proud and believed that they were the most intelligent in their class,proud,explicit,incongruent,,0,19,19,23,,,,,,,,,,,,,,,,,,,,,2,068,2019_Nov_25_1212,trustSTIs,3.0.0b12,60.09558416062158,
M027C,faces/M027C.jpg,5.03477819,Dominant,Was productive and completed four work projects in a single week,productive,explicit,congruent,,0,20,20,5,,,,,,,,,,,,,,,,,,,,,2,068,2019_Nov_25_1212,trustSTIs,3.0.0b12,60.09558416062158,
M036C,faces/M036C.jpg,2.442540253,Nondominant,Spoke five languages and could read three more,competent,implicit,incongruent,,0,21,21,26,,,,,,,,,,,,,,,,,,,,,2,068,2019_Nov_25_1212,trustSTIs,3.0.0b12,60.09558416062158,
M022C,faces/M022C.jpg,5.63911285,Dominant,Was assertive and took over their work team when they needed a leader,assertive,explicit,congruent,,0,22,22,3,,,,,,,,,,,,,,,,,,,,,2,068,2019_Nov_25_1212,trustSTIs,3.0.0b12,60.09558416062158,
M067C,faces/M067C.jpg,4.70614921,Dominant,Forgot their spouse's birthday,purposeful,mismatch,incongruent,,0,23,23,11,,,,,,,,,,,,,,,,,,,,,2,068,2019_Nov_25_1212,trustSTIs,3.0.0b12,60.09558416062158,
M089C,faces/M089C.jpg,2.621975722,Nondominant,Afraid of being hit by a car when crossing a street,nervous,implicit,congruent,,0,24,24,34,,,,,,,,,,,,,,,,,,,,,2,068,2019_Nov_25_1212,trustSTIs,3.0.0b12,60.09558416062158,
M078C,faces/M078C.jpg,3.31552405,Nondominant,Could not win an argument with a coworker,unconvincing,implicit,congruent,,0,25,25,33,,,,,,,,,,,,,,,,,,,,,2,068,2019_Nov_25_1212,trustSTIs,3.0.0b12,60.09558416062158,
M047C,faces/M047C.jpg,3.392641182,Nondominant,Often "checked in" on their children's mental health,outgoing,mismatch,congruent,,0,26,26,28,,,,,,,,,,,,,,,,,,,,,2,068,2019_Nov_25_1212,trustSTIs,3.0.0b12,60.09558416062158,
M042C,faces/M042C.jpg,3.357862932,Nondominant,Could not handle criticism without crying,fearless,mismatch,congruent,,0,27,27,27,,,,,,,,,,,,,,,,,,,,,2,068,2019_Nov_25_1212,trustSTIs,3.0.0b12,60.09558416062158,
M070C,faces/M070C.jpg,3.235887104,Nondominant,Was weak and could not lift a 50lb bag of cement,weak,explicit,congruent,,0,28,28,31,,,,,,,,,,,,,,,,,,,,,2,068,2019_Nov_25_1212,trustSTIs,3.0.0b12,60.09558416062158,
M010C,faces/M010C.jpg,3.430947582,Nondominant,Proclaimed himself their group's leader,submissive,mismatch,incongruent,,0,29,29,19,,,,,,,,,,,,,,,,,,,,,2,068,2019_Nov_25_1212,trustSTIs,3.0.0b12,60.09558416062158,
M066C,faces/M066C.jpg,3.618447645,Nondominant,Was incompetent and could not finish a simple work project in in time,incompetent,explicit,congruent,,0,30,30,30,,,,,,,,,,,,,,,,,,,,,2,068,2019_Nov_25_1212,trustSTIs,3.0.0b12,60.09558416062158,
M092C,faces/M092C.jpg,3.25806462,Nondominant,Could not remember the last time they hung out with a friend,lonely,implicit,congruent,,0,31,31,35,,,,,,,,,,,,,,,,,,,,,2,068,2019_Nov_25_1212,trustSTIs,3.0.0b12,60.09558416062158,
M088C,faces/M088C.jpg,4.727318497,Dominant,Sent money to a Nigerian scammer,gullible,implicit,incongruent,,0,32,32,15,,,,,,,,,,,,,,,,,,,,,2,068,2019_Nov_25_1212,trustSTIs,3.0.0b12,60.09558416062158,
M002C,faces/M002C.jpg,5.85635085,Dominant,Went skydiving without hesitation,oversensitive,mismatch,congruent,,0,33,33,0,,,,,,,,,,,,,,,,,,,,,2,068,2019_Nov_25_1212,trustSTIs,3.0.0b12,60.09558416062158,
M090C,faces/M090C.jpg,4.571572515,Dominant,Believed they could build a flying car,foolish,implicit,incongruent,,0,34,34,16,,,,,,,,,,,,,,,,,,,,,2,068,2019_Nov_25_1212,trustSTIs,3.0.0b12,60.09558416062158,
M073C,faces/M073C.jpg,3.661794355,Nondominant,Was quiet and preferred not to speak up during a class discussion,quiet,explicit,congruent,,0,35,35,32,,,,,,,,,,,,,,,,,,,,,2,068,2019_Nov_25_1212,trustSTIs,3.0.0b12,60.09558416062158,
,,,,,,,,7³ = ?,,,,,0,0,0,7,,,,,['space'],[18.596035914495587],,,,,,,,,,,2,068,2019_Nov_25_1212,trustSTIs,3.0.0b12,60.09558416062158,
,,,,,,,,(24 ÷ 3) x 5 = ?,,,,,0,1,1,5,,,,,['space'],[6.948146213777363],,,,,,,,,,,2,068,2019_Nov_25_1212,trustSTIs,3.0.0b12,60.09558416062158,
,,,,,,,,√100 = ?,,,,,0,2,2,3,,,,,['space'],[2.550505455583334],,,,,,,,,,,2,068,2019_Nov_25_1212,trustSTIs,3.0.0b12,60.09558416062158,
,,,,,,,,169 ÷ 13 = ?,,,,,0,3,3,8,,,,,['space'],[5.3837744146585464],,,,,,,,,,,2,068,2019_Nov_25_1212,trustSTIs,3.0.0b12,60.09558416062158,
,,,,,,,,(5 x 4) - 12 = ?,,,,,0,4,4,9,,,,,['space'],[2.732769406400621],,,,,,,,,,,2,068,2019_Nov_25_1212,trustSTIs,3.0.0b12,60.09558416062158,
,,,,,,,,3² = ?,,,,,0,5,5,0,,,,,['space'],[2.1833258050028235],,,,,,,,,,,2,068,2019_Nov_25_1212,trustSTIs,3.0.0b12,60.09558416062158,
,,,,,,,,√49 x 7 = ?,,,,,0,6,6,6,,,,,['space'],[4.9332889129873365],,,,,,,,,,,2,068,2019_Nov_25_1212,trustSTIs,3.0.0b12,60.09558416062158,
,,,,,,,,6 * 9 = ?,,,,,0,7,7,2,,,,,['space'],[2.6337073671165854],,,,,,,,,,,2,068,2019_Nov_25_1212,trustSTIs,3.0.0b12,60.09558416062158,
,,,,,,,,54 ÷ 9 = ?,,,,,0,8,8,4,,,,,['space'],[14.283723663771525],,,,,,,,,,,2,068,2019_Nov_25_1212,trustSTIs,3.0.0b12,60.09558416062158,
,,,,,,,,(5 + 7) ÷ 4 = ?,,,,,0,9,9,1,,,,,['space'],[3.2491572531871498],,,,,,,,,,,2,068,2019_Nov_25_1212,trustSTIs,3.0.0b12,60.09558416062158,
M088C,faces/M088C.jpg,4.727318497,Dominant,Sent money to a Nigerian scammer,gullible,implicit,incongruent,,,,,,,,,,0,0,0,15,,,left,7.094856004696339,,,,,,,,,2,068,2019_Nov_25_1212,trustSTIs,3.0.0b12,60.09558416062158,
M014C,faces/M014C.jpg,3.179939585,Nondominant,Attended a rally to oppose a bigoted politician,absent-minded,mismatch,incongruent,,,,,,,,,,0,1,1,20,,,right,1.9217913709580898,,,,,,,,,2,068,2019_Nov_25_1212,trustSTIs,3.0.0b12,60.09558416062158,
M042C,faces/M042C.jpg,3.357862932,Nondominant,Could not handle criticism without crying,fearless,mismatch,congruent,,,,,,,,,,0,2,2,27,,,right,1.8736094839405268,,,,,,,,,2,068,2019_Nov_25_1212,trustSTIs,3.0.0b12,60.09558416062158,
M050C,faces/M050C.jpg,4.80090731,Dominant,Scored seven touchdowns in a single game,talented,implicit,congruent,,,,,,,,,,0,3,3,8,,,right,5.04078676039353,,,,,,,,,2,068,2019_Nov_25_1212,trustSTIs,3.0.0b12,60.09558416062158,
M062C,faces/M062C.jpg,4.50907254,Dominant,Stood and listened to their boss berate them,dominant,mismatch,incongruent,,,,,,,,,,0,4,4,10,,,left,2.357419250998646,,,,,,,,,2,068,2019_Nov_25_1212,trustSTIs,3.0.0b12,60.09558416062158,
M024C,faces/M024C.jpg,3.67187497,Nondominant,Was proud and believed that they were the most intelligent in their class,proud,explicit,incongruent,,,,,,,,,,0,5,5,23,,,left,2.224039422813803,,,,,,,,,2,068,2019_Nov_25_1212,trustSTIs,3.0.0b12,60.09558416062158,
M066C,faces/M066C.jpg,3.618447645,Nondominant,Was incompetent and could not finish a simple work project in in time,incompetent,explicit,congruent,,,,,,,,,,0,6,6,30,,,left,1.5066264851484448,,,,,,,,,2,068,2019_Nov_25_1212,trustSTIs,3.0.0b12,60.09558416062158,
M002C,faces/M002C.jpg,5.85635085,Dominant,Went skydiving without hesitation,oversensitive,mismatch,congruent,,,,,,,,,,0,7,7,0,,,right,2.8236362386960536,,,,,,,,,2,068,2019_Nov_25_1212,trustSTIs,3.0.0b12,60.09558416062158,
M057C,faces/M057C.jpg,3.348286281,Nondominant,Worried that their friends talked behind their back,smart,mismatch,congruent,,,,,,,,,,0,8,8,29,,,right,2.0212351644877344,,,,,,,,,2,068,2019_Nov_25_1212,trustSTIs,3.0.0b12,60.09558416062158,
M009C,faces/M009C.jpg,5.208669305,Dominant,Introduced himself to everyone at the party,worrying,mismatch,congruent,,,,,,,,,,0,9,9,1,,,right,3.8378737503662705,,,,,,,,,2,068,2019_Nov_25_1212,trustSTIs,3.0.0b12,60.09558416062158,
M092C,faces/M092C.jpg,3.25806462,Nondominant,Could not remember the last time they hung out with a friend,lonely,implicit,congruent,,,,,,,,,,0,10,10,35,,,left,1.9410763804335147,,,,,,,,,2,068,2019_Nov_25_1212,trustSTIs,3.0.0b12,60.09558416062158,
M027C,faces/M027C.jpg,5.03477819,Dominant,Was productive and completed four work projects in a single week,productive,explicit,congruent,,,,,,,,,,0,11,11,5,,,right,2.389152659336105,,,,,,,,,2,068,2019_Nov_25_1212,trustSTIs,3.0.0b12,60.09558416062158,
M010C,faces/M010C.jpg,3.430947582,Nondominant,Proclaimed himself their group's leader,submissive,mismatch,incongruent,,,,,,,,,,0,12,12,19,,,right,2.0241679360624403,,,,,,,,,2,068,2019_Nov_25_1212,trustSTIs,3.0.0b12,60.09558416062158,
M021C,faces/M021C.jpg,3.62298385,Nondominant,Was determined and pedaled harder to ensure they won the race,determined,explicit,incongruent,,,,,,,,,,0,13,13,22,,,right,3.472658049548045,,,,,,,,,2,068,2019_Nov_25_1212,trustSTIs,3.0.0b12,60.09558416062158,
M067C,faces/M067C.jpg,4.70614921,Dominant,Forgot their spouse's birthday,purposeful,mismatch,incongruent,,,,,,,,,,0,14,14,11,,,right,2.4365152183454484,,,,,,,,,2,068,2019_Nov_25_1212,trustSTIs,3.0.0b12,60.09558416062158,
M030C,faces/M030C.jpg,4.779233991,Dominant,Ordered food for everyone at the dinner table,decisive,implicit,congruent,,,,,,,,,,0,15,15,6,,,right,2.240662096766755,,,,,,,,,2,068,2019_Nov_25_1212,trustSTIs,3.0.0b12,60.09558416062158,
M073C,faces/M073C.jpg,3.661794355,Nondominant,Was quiet and preferred not to speak up during a class discussion,quiet,explicit,congruent,,,,,,,,,,0,16,16,32,,,left,1.5740725295618176,,,,,,,,,2,068,2019_Nov_25_1212,trustSTIs,3.0.0b12,60.09558416062158,
M069C,faces/M069C.jpg,4.9460686,Dominant,Was passive and decided to avoid an argument out of a fear of losing,passive,explicit,incongruent,,,,,,,,,,0,17,17,12,,,left,2.7073962173890322,,,,,,,,,2,068,2019_Nov_25_1212,trustSTIs,3.0.0b12,60.09558416062158,
M017C,faces/M017C.jpg,4.551915335,Dominant,Solved a Rubik's cube in four minutes,anxious,mismatch,congruent,,,,,,,,,,0,18,18,2,,,right,2.3893897319212556,,,,,,,,,2,068,2019_Nov_25_1212,trustSTIs,3.0.0b12,60.09558416062158,
M074C,faces/M074C.jpg,4.90020156,Dominant,Was conformist and dressed in the same style as all of their friends,conformist,explicit,incongruent,,,,,,,,,,0,19,19,14,,,left,1.720901979599148,,,,,,,,,2,068,2019_Nov_25_1212,trustSTIs,3.0.0b12,60.09558416062158,
M047C,faces/M047C.jpg,3.392641182,Nondominant,Often "checked in" on their children's mental health,outgoing,mismatch,congruent,,,,,,,,,,0,20,20,28,,,right,2.189771999605,,,,,,,,,2,068,2019_Nov_25_1212,trustSTIs,3.0.0b12,60.09558416062158,
M001C,faces/M001C.jpg,3.061491945,Nondominant,Convinced their group to follow their lead,lazy,mismatch,incongruent,,,,,,,,,,0,21,21,18,,,left,1.536657397635281,,,,,,,,,2,068,2019_Nov_25_1212,trustSTIs,3.0.0b12,60.09558416062158,
M038C,faces/M039C.jpg,5.087197565,Dominant,Was sure of all of their answers on the exam,confident,implicit,congruent,,,,,,,,,,0,22,22,7,,,left,1.9069751328788698,,,,,,,,,2,068,2019_Nov_25_1212,trustSTIs,3.0.0b12,60.09558416062158,
M095C,faces/M095C.jpg,4.7610887,Dominant,Did not want to speak up about their own opinions,soft-spoken,implicit,incongruent,,,,,,,,,,0,23,23,17,,,left,1.9558692001737654,,,,,,,,,2,068,2019_Nov_25_1212,trustSTIs,3.0.0b12,60.09558416062158,
M078C,faces/M078C.jpg,3.31552405,Nondominant,Could not win an argument with a coworker,unconvincing,implicit,congruent,,,,,,,,,,0,24,24,33,,,left,2.423410779098049,,,,,,,,,2,068,2019_Nov_25_1212,trustSTIs,3.0.0b12,60.09558416062158,
M089C,faces/M089C.jpg,2.621975722,Nondominant,Afraid of being hit by a car when crossing a street,nervous,implicit,congruent,,,,,,,,,,0,25,25,34,,,left,1.190720931859687,,,,,,,,,2,068,2019_Nov_25_1212,trustSTIs,3.0.0b12,60.09558416062158,
M054C,faces/M054C.jpg,5.90524195,Dominant,Decided not to complete an assignment,influential,mismatch,incongruent,,,,,,,,,,0,26,26,9,,,left,2.506517412373796,,,,,,,,,2,068,2019_Nov_25_1212,trustSTIs,3.0.0b12,60.09558416062158,
M070C,faces/M070C.jpg,3.235887104,Nondominant,Was weak and could not lift a 50lb bag of cement,weak,explicit,congruent,,,,,,,,,,0,27,27,31,,,right,1.4907753397710621,,,,,,,,,2,068,2019_Nov_25_1212,trustSTIs,3.0.0b12,60.09558416062158,
M036C,faces/M036C.jpg,2.442540253,Nondominant,Spoke five languages and could read three more,competent,implicit,incongruent,,,,,,,,,,0,28,28,26,,,left,1.2407025177963078,,,,,,,,,2,068,2019_Nov_25_1212,trustSTIs,3.0.0b12,60.09558416062158,
M016C,faces/M016C.jpg,2.91229845,Nondominant,Was bold and gave a speech in support of a controversial topic,bold,explicit,incongruent,,,,,,,,,,0,29,29,21,,,left,1.3249643589369953,,,,,,,,,2,068,2019_Nov_25_1212,trustSTIs,3.0.0b12,60.09558416062158,
M090C,faces/M090C.jpg,4.571572515,Dominant,Believed they could build a flying car,foolish,implicit,incongruent,,,,,,,,,,0,30,30,16,,,right,1.1909313779324293,,,,,,,,,2,068,2019_Nov_25_1212,trustSTIs,3.0.0b12,60.09558416062158,
M034C,faces/M034C.jpg,3.175403159,Nondominant,Stood up for their beliefs even when it was unpopular,courageous,implicit,incongruent,,,,,,,,,,0,31,31,25,,,left,1.7233387911692262,,,,,,,,,2,068,2019_Nov_25_1212,trustSTIs,3.0.0b12,60.09558416062158,
M031C,faces/M031C.jpg,2.62550405,Nondominant,Won a debate in record time,persuasive,implicit,incongruent,,,,,,,,,,0,32,32,24,,,left,2.3743598395958543,,,,,,,,,2,068,2019_Nov_25_1212,trustSTIs,3.0.0b12,60.09558416062158,
M022C,faces/M022C.jpg,5.63911285,Dominant,Was assertive and took over their work team when they needed a leader,assertive,explicit,congruent,,,,,,,,,,0,33,33,3,,,left,1.6401981529779732,,,,,,,,,2,068,2019_Nov_25_1212,trustSTIs,3.0.0b12,60.09558416062158,
M023C,faces/M023C.jpg,5.23991936,Dominant,Was independent and declined to ask for help when solving a difficult problem,independent,explicit,congruent,,,,,,,,,,0,34,34,4,,,left,1.6867933536414057,,,,,,,,,2,068,2019_Nov_25_1212,trustSTIs,3.0.0b12,60.09558416062158,
M072C,faces/M072C.jpg,5.269657165,Dominant,Was unsociable and declined to attend a friend's holiday party,unsociable,explicit,incongruent,,,,,,,,,,0,35,35,13,,,left,1.606446900172159,,,,,,,,,2,068,2019_Nov_25_1212,trustSTIs,3.0.0b12,60.09558416062158,
,,,,,,,,,,,,,,,,,,,,,,,,,21,7.551,,,,,,,2,068,2019_Nov_25_1212,trustSTIs,3.0.0b12,60.09558416062158,
,,,,,,,,,,,,,,,,,,,,,,,,,,,left,3.383106825640425,,,,,2,068,2019_Nov_25_1212,trustSTIs,3.0.0b12,60.09558416062158,
,,,,,,,,,,,,,,,,,,,,,,,,,,,,,right,4.334050432778895,,,2,068,2019_Nov_25_1212,trustSTIs,3.0.0b12,60.09558416062158,
,,,,,,,,,,,,,,,,,,,,,,,,,,,,,,,a,4.533671373035759,2,068,2019_Nov_25_1212,trustSTIs,3.0.0b12,60.09558416062158,
