stimID,face,mDominance,dominance,behavior,trait,trialType,congruence,dist,encodingLoop.thisRepN,encodingLoop.thisTrialN,encodingLoop.thisN,encodingLoop.thisIndex,distLoop.thisRepN,distLoop.thisTrialN,distLoop.thisN,distLoop.thisIndex,recognitionLoop.thisRepN,recognitionLoop.thisTrialN,recognitionLoop.thisN,recognitionLoop.thisIndex,distAnswers.keys,distAnswers.rt,keyResp.keys,keyResp.rt,ageRate.response,ageRate.rt,eflResp.keys,eflResp.rt,genderResp.keys,genderResp.rt,ethResp.keys,ethResp.rt,condition,participant,date,expName,psychopyVersion,frameRate,
M009C,faces/M009C.jpg,5.208669305,Dominant,Introduced himself to everyone at the party,outgoing,implicit,congruent,,0,0,0,1,,,,,,,,,,,,,,,,,,,,,3,093,2019_Dec_02_1507,trustSTIs,3.0.0b12,59.97821904065472,
M074C,faces/M074C.jpg,4.90020156,Dominant,Dressed in the same style as all of their friends,proud,mismatch,incongruent,,0,1,1,14,,,,,,,,,,,,,,,,,,,,,3,093,2019_Dec_02_1507,trustSTIs,3.0.0b12,59.97821904065472,
M088C,faces/M088C.jpg,4.727318497,Dominant,Was gullible and sent money to a Nigerian scammer,gullible,explicit,incongruent,,0,2,2,15,,,,,,,,,,,,,,,,,,,,,3,093,2019_Dec_02_1507,trustSTIs,3.0.0b12,59.97821904065472,
M057C,faces/M057C.jpg,3.348286281,Nondominant,Worried that their friends talked behind their back,anxious,implicit,congruent,,0,3,3,29,,,,,,,,,,,,,,,,,,,,,3,093,2019_Dec_02_1507,trustSTIs,3.0.0b12,59.97821904065472,
M089C,faces/M089C.jpg,2.621975722,Nondominant,Was nervous and was afraid of being hit by a car when crossing a street,nervous,explicit,congruent,,0,4,4,34,,,,,,,,,,,,,,,,,,,,,3,093,2019_Dec_02_1507,trustSTIs,3.0.0b12,59.97821904065472,
M027C,faces/M027C.jpg,5.03477819,Dominant,Completed four work projects in a single week,quiet,mismatch,congruent,,0,5,5,5,,,,,,,,,,,,,,,,,,,,,3,093,2019_Dec_02_1507,trustSTIs,3.0.0b12,59.97821904065472,
M047C,faces/M047C.jpg,3.392641182,Nondominant,Often "checked in" on their children's mental health,worrying,implicit,congruent,,0,6,6,28,,,,,,,,,,,,,,,,,,,,,3,093,2019_Dec_02_1507,trustSTIs,3.0.0b12,59.97821904065472,
M050C,faces/M050C.jpg,4.80090731,Dominant,Was talented and scored seven touchdowns in a single game,talented,explicit,congruent,,0,7,7,8,,,,,,,,,,,,,,,,,,,,,3,093,2019_Dec_02_1507,trustSTIs,3.0.0b12,59.97821904065472,
M002C,faces/M002C.jpg,5.85635085,Dominant,Went skydiving without hesitation,fearless,implicit,congruent,,0,8,8,0,,,,,,,,,,,,,,,,,,,,,3,093,2019_Dec_02_1507,trustSTIs,3.0.0b12,59.97821904065472,
M022C,faces/M022C.jpg,5.63911285,Dominant,Took over their work team when they needed a leader,incompetent,mismatch,congruent,,0,9,9,3,,,,,,,,,,,,,,,,,,,,,3,093,2019_Dec_02_1507,trustSTIs,3.0.0b12,59.97821904065472,
M010C,faces/M010C.jpg,3.430947582,Nondominant,Proclaimed himself their group's leader,dominant,implicit,incongruent,,0,10,10,19,,,,,,,,,,,,,,,,,,,,,3,093,2019_Dec_02_1507,trustSTIs,3.0.0b12,59.97821904065472,
M024C,faces/M024C.jpg,3.67187497,Nondominant,Believed that they were the most intelligent in their class,conformist,mismatch,incongruent,,0,11,11,23,,,,,,,,,,,,,,,,,,,,,3,093,2019_Dec_02_1507,trustSTIs,3.0.0b12,59.97821904065472,
M078C,faces/M078C.jpg,3.31552405,Nondominant,Was unconvincing and could not win an argument with a coworker,unconvincing,explicit,congruent,,0,12,12,33,,,,,,,,,,,,,,,,,,,,,3,093,2019_Dec_02_1507,trustSTIs,3.0.0b12,59.97821904065472,
M095C,faces/M095C.jpg,4.7610887,Dominant,Was soft-spoken and did not want to speak up about their own opinions,soft-spoken,explicit,incongruent,,0,13,13,17,,,,,,,,,,,,,,,,,,,,,3,093,2019_Dec_02_1507,trustSTIs,3.0.0b12,59.97821904065472,
M021C,faces/M021C.jpg,3.62298385,Nondominant,Pedaled harder to ensure they won the race,unsociable,mismatch,incongruent,,0,14,14,22,,,,,,,,,,,,,,,,,,,,,3,093,2019_Dec_02_1507,trustSTIs,3.0.0b12,59.97821904065472,
M090C,faces/M090C.jpg,4.571572515,Dominant,Was foolish and believed they could build a flying car,foolish,explicit,incongruent,,0,15,15,16,,,,,,,,,,,,,,,,,,,,,3,093,2019_Dec_02_1507,trustSTIs,3.0.0b12,59.97821904065472,
M017C,faces/M017C.jpg,4.551915335,Dominant,Solved a Rubik's cube in four minutes,smart,implicit,congruent,,0,16,16,2,,,,,,,,,,,,,,,,,,,,,3,093,2019_Dec_02_1507,trustSTIs,3.0.0b12,59.97821904065472,
M034C,faces/M034C.jpg,3.175403159,Nondominant,Was courageous and stood up for their beliefs even when it was unpopular,courageous,explicit,incongruent,,0,17,17,25,,,,,,,,,,,,,,,,,,,,,3,093,2019_Dec_02_1507,trustSTIs,3.0.0b12,59.97821904065472,
M070C,faces/M070C.jpg,3.235887104,Nondominant,Could not lift a 50lb bag of cement,independent,mismatch,congruent,,0,18,18,31,,,,,,,,,,,,,,,,,,,,,3,093,2019_Dec_02_1507,trustSTIs,3.0.0b12,59.97821904065472,
M067C,faces/M067C.jpg,4.70614921,Dominant,Forgot their spouse's birthday,absent-minded,implicit,incongruent,,0,19,19,11,,,,,,,,,,,,,,,,,,,,,3,093,2019_Dec_02_1507,trustSTIs,3.0.0b12,59.97821904065472,
M036C,faces/M036C.jpg,2.442540253,Nondominant,Was competent and spoke five languages and could read three more,competent,explicit,incongruent,,0,20,20,26,,,,,,,,,,,,,,,,,,,,,3,093,2019_Dec_02_1507,trustSTIs,3.0.0b12,59.97821904065472,
M038C,faces/M039C.jpg,5.087197565,Dominant,Was confident and was sure of all of their answers on the exam,confident,explicit,congruent,,0,21,21,7,,,,,,,,,,,,,,,,,,,,,3,093,2019_Dec_02_1507,trustSTIs,3.0.0b12,59.97821904065472,
M042C,faces/M042C.jpg,3.357862932,Nondominant,Could not handle criticism without crying,oversensitive,implicit,congruent,,0,22,22,27,,,,,,,,,,,,,,,,,,,,,3,093,2019_Dec_02_1507,trustSTIs,3.0.0b12,59.97821904065472,
M030C,faces/M030C.jpg,4.779233991,Dominant,Was decisive and ordered food for everyone at the dinner table,decisive,explicit,congruent,,0,23,23,6,,,,,,,,,,,,,,,,,,,,,3,093,2019_Dec_02_1507,trustSTIs,3.0.0b12,59.97821904065472,
M023C,faces/M023C.jpg,5.23991936,Dominant,Declined to ask for help when solving a difficult problem,weak,mismatch,congruent,,0,24,24,4,,,,,,,,,,,,,,,,,,,,,3,093,2019_Dec_02_1507,trustSTIs,3.0.0b12,59.97821904065472,
M072C,faces/M072C.jpg,5.269657165,Dominant,Declined to attend a friend's holiday party,determined,mismatch,incongruent,,0,25,25,13,,,,,,,,,,,,,,,,,,,,,3,093,2019_Dec_02_1507,trustSTIs,3.0.0b12,59.97821904065472,
M001C,faces/M001C.jpg,3.061491945,Nondominant,Convinced their group to follow their lead,influential,implicit,incongruent,,0,26,26,18,,,,,,,,,,,,,,,,,,,,,3,093,2019_Dec_02_1507,trustSTIs,3.0.0b12,59.97821904065472,
M066C,faces/M066C.jpg,3.618447645,Nondominant,Could not finish a simple work project in in time,assertive,mismatch,congruent,,0,27,27,30,,,,,,,,,,,,,,,,,,,,,3,093,2019_Dec_02_1507,trustSTIs,3.0.0b12,59.97821904065472,
M016C,faces/M016C.jpg,2.91229845,Nondominant,Gave a speech in support of a controversial topic,passive,mismatch,incongruent,,0,28,28,21,,,,,,,,,,,,,,,,,,,,,3,093,2019_Dec_02_1507,trustSTIs,3.0.0b12,59.97821904065472,
M054C,faces/M054C.jpg,5.90524195,Dominant,Decided not to complete an assignment,lazy,implicit,incongruent,,0,29,29,9,,,,,,,,,,,,,,,,,,,,,3,093,2019_Dec_02_1507,trustSTIs,3.0.0b12,59.97821904065472,
M073C,faces/M073C.jpg,3.661794355,Nondominant,Preferred not to speak up during a class discussion,productive,mismatch,congruent,,0,30,30,32,,,,,,,,,,,,,,,,,,,,,3,093,2019_Dec_02_1507,trustSTIs,3.0.0b12,59.97821904065472,
M031C,faces/M031C.jpg,2.62550405,Nondominant,Was persuasive and won a debate in record time,persuasive,explicit,incongruent,,0,31,31,24,,,,,,,,,,,,,,,,,,,,,3,093,2019_Dec_02_1507,trustSTIs,3.0.0b12,59.97821904065472,
M062C,faces/M062C.jpg,4.50907254,Dominant,Stood and listened to their boss berate them,submissive,implicit,incongruent,,0,32,32,10,,,,,,,,,,,,,,,,,,,,,3,093,2019_Dec_02_1507,trustSTIs,3.0.0b12,59.97821904065472,
M014C,faces/M014C.jpg,3.179939585,Nondominant,Attended a rally to oppose a bigoted politician,purposeful,implicit,incongruent,,0,33,33,20,,,,,,,,,,,,,,,,,,,,,3,093,2019_Dec_02_1507,trustSTIs,3.0.0b12,59.97821904065472,
M092C,faces/M092C.jpg,3.25806462,Nondominant,Was lonely and could not remember the last time they hung out with a friend,lonely,explicit,congruent,,0,34,34,35,,,,,,,,,,,,,,,,,,,,,3,093,2019_Dec_02_1507,trustSTIs,3.0.0b12,59.97821904065472,
M069C,faces/M069C.jpg,4.9460686,Dominant,Decided to avoid an argument out of a fear of losing,bold,mismatch,incongruent,,0,35,35,12,,,,,,,,,,,,,,,,,,,,,3,093,2019_Dec_02_1507,trustSTIs,3.0.0b12,59.97821904065472,
,,,,,,,,7³ = ?,,,,,0,0,0,7,,,,,['space'],[13.32232672534883],,,,,,,,,,,3,093,2019_Dec_02_1507,trustSTIs,3.0.0b12,59.97821904065472,
,,,,,,,,(24 ÷ 3) x 5 = ?,,,,,0,1,1,5,,,,,['space'],[4.685797584243119],,,,,,,,,,,3,093,2019_Dec_02_1507,trustSTIs,3.0.0b12,59.97821904065472,
,,,,,,,,169 ÷ 13 = ?,,,,,0,2,2,8,,,,,['space'],[6.8664078009314835],,,,,,,,,,,3,093,2019_Dec_02_1507,trustSTIs,3.0.0b12,59.97821904065472,
,,,,,,,,3² = ?,,,,,0,3,3,0,,,,,['space'],[3.5669645206071436],,,,,,,,,,,3,093,2019_Dec_02_1507,trustSTIs,3.0.0b12,59.97821904065472,
,,,,,,,,54 ÷ 9 = ?,,,,,0,4,4,4,,,,,['space'],[5.000359619036317],,,,,,,,,,,3,093,2019_Dec_02_1507,trustSTIs,3.0.0b12,59.97821904065472,
,,,,,,,,(5 + 7) ÷ 4 = ?,,,,,0,5,5,1,,,,,['space'],[5.349342420231551],,,,,,,,,,,3,093,2019_Dec_02_1507,trustSTIs,3.0.0b12,59.97821904065472,
,,,,,,,,6 * 9 = ?,,,,,0,6,6,2,,,,,['space'],[5.083334402646869],,,,,,,,,,,3,093,2019_Dec_02_1507,trustSTIs,3.0.0b12,59.97821904065472,
,,,,,,,,√100 = ?,,,,,0,7,7,3,,,,,['space'],[2.5836654705926776],,,,,,,,,,,3,093,2019_Dec_02_1507,trustSTIs,3.0.0b12,59.97821904065472,
,,,,,,,,(5 x 4) - 12 = ?,,,,,0,8,8,9,,,,,['space'],[4.40035121422261],,,,,,,,,,,3,093,2019_Dec_02_1507,trustSTIs,3.0.0b12,59.97821904065472,
,,,,,,,,√49 x 7 = ?,,,,,0,9,9,6,,,,,['space'],[3.000273964833468],,,,,,,,,,,3,093,2019_Dec_02_1507,trustSTIs,3.0.0b12,59.97821904065472,
M022C,faces/M022C.jpg,5.63911285,Dominant,Took over their work team when they needed a leader,incompetent,mismatch,congruent,,,,,,,,,,0,0,0,3,,,right,4.444263868499547,,,,,,,,,3,093,2019_Dec_02_1507,trustSTIs,3.0.0b12,59.97821904065472,
M062C,faces/M062C.jpg,4.50907254,Dominant,Stood and listened to their boss berate them,submissive,implicit,incongruent,,,,,,,,,,0,1,1,10,,,right,1.9403664455749094,,,,,,,,,3,093,2019_Dec_02_1507,trustSTIs,3.0.0b12,59.97821904065472,
M023C,faces/M023C.jpg,5.23991936,Dominant,Declined to ask for help when solving a difficult problem,weak,mismatch,congruent,,,,,,,,,,0,2,2,4,,,right,4.123945684172213,,,,,,,,,3,093,2019_Dec_02_1507,trustSTIs,3.0.0b12,59.97821904065472,
M030C,faces/M030C.jpg,4.779233991,Dominant,Was decisive and ordered food for everyone at the dinner table,decisive,explicit,congruent,,,,,,,,,,0,3,3,6,,,right,3.1740636113099754,,,,,,,,,3,093,2019_Dec_02_1507,trustSTIs,3.0.0b12,59.97821904065472,
M095C,faces/M095C.jpg,4.7610887,Dominant,Was soft-spoken and did not want to speak up about their own opinions,soft-spoken,explicit,incongruent,,,,,,,,,,0,4,4,17,,,left,1.2062272150069475,,,,,,,,,3,093,2019_Dec_02_1507,trustSTIs,3.0.0b12,59.97821904065472,
M021C,faces/M021C.jpg,3.62298385,Nondominant,Pedaled harder to ensure they won the race,unsociable,mismatch,incongruent,,,,,,,,,,0,5,5,22,,,left,2.79043772816658,,,,,,,,,3,093,2019_Dec_02_1507,trustSTIs,3.0.0b12,59.97821904065472,
M069C,faces/M069C.jpg,4.9460686,Dominant,Decided to avoid an argument out of a fear of losing,bold,mismatch,incongruent,,,,,,,,,,0,6,6,12,,,right,1.3409627522341907,,,,,,,,,3,093,2019_Dec_02_1507,trustSTIs,3.0.0b12,59.97821904065472,
M024C,faces/M024C.jpg,3.67187497,Nondominant,Believed that they were the most intelligent in their class,conformist,mismatch,incongruent,,,,,,,,,,0,7,7,23,,,right,1.7736459909938276,,,,,,,,,3,093,2019_Dec_02_1507,trustSTIs,3.0.0b12,59.97821904065472,
M017C,faces/M017C.jpg,4.551915335,Dominant,Solved a Rubik's cube in four minutes,smart,implicit,congruent,,,,,,,,,,0,8,8,2,,,left,2.173586258199066,,,,,,,,,3,093,2019_Dec_02_1507,trustSTIs,3.0.0b12,59.97821904065472,
M047C,faces/M047C.jpg,3.392641182,Nondominant,Often "checked in" on their children's mental health,worrying,implicit,congruent,,,,,,,,,,0,9,9,28,,,right,1.6736375861801207,,,,,,,,,3,093,2019_Dec_02_1507,trustSTIs,3.0.0b12,59.97821904065472,
M070C,faces/M070C.jpg,3.235887104,Nondominant,Could not lift a 50lb bag of cement,independent,mismatch,congruent,,,,,,,,,,0,10,10,31,,,right,2.672992453444749,,,,,,,,,3,093,2019_Dec_02_1507,trustSTIs,3.0.0b12,59.97821904065472,
M088C,faces/M088C.jpg,4.727318497,Dominant,Was gullible and sent money to a Nigerian scammer,gullible,explicit,incongruent,,,,,,,,,,0,11,11,15,,,left,1.1907475581392646,,,,,,,,,3,093,2019_Dec_02_1507,trustSTIs,3.0.0b12,59.97821904065472,
M092C,faces/M092C.jpg,3.25806462,Nondominant,Was lonely and could not remember the last time they hung out with a friend,lonely,explicit,congruent,,,,,,,,,,0,12,12,35,,,left,1.2571169915609062,,,,,,,,,3,093,2019_Dec_02_1507,trustSTIs,3.0.0b12,59.97821904065472,
M034C,faces/M034C.jpg,3.175403159,Nondominant,Was courageous and stood up for their beliefs even when it was unpopular,courageous,explicit,incongruent,,,,,,,,,,0,13,13,25,,,left,1.7070359564386308,,,,,,,,,3,093,2019_Dec_02_1507,trustSTIs,3.0.0b12,59.97821904065472,
M010C,faces/M010C.jpg,3.430947582,Nondominant,Proclaimed himself their group's leader,dominant,implicit,incongruent,,,,,,,,,,0,14,14,19,,,right,1.5739156571216881,,,,,,,,,3,093,2019_Dec_02_1507,trustSTIs,3.0.0b12,59.97821904065472,
M090C,faces/M090C.jpg,4.571572515,Dominant,Was foolish and believed they could build a flying car,foolish,explicit,incongruent,,,,,,,,,,0,15,15,16,,,left,1.0571130132302642,,,,,,,,,3,093,2019_Dec_02_1507,trustSTIs,3.0.0b12,59.97821904065472,
M089C,faces/M089C.jpg,2.621975722,Nondominant,Was nervous and was afraid of being hit by a car when crossing a street,nervous,explicit,congruent,,,,,,,,,,0,16,16,34,,,right,3.8246419527567923,,,,,,,,,3,093,2019_Dec_02_1507,trustSTIs,3.0.0b12,59.97821904065472,
M073C,faces/M073C.jpg,3.661794355,Nondominant,Preferred not to speak up during a class discussion,productive,mismatch,congruent,,,,,,,,,,0,17,17,32,,,right,2.090169087983668,,,,,,,,,3,093,2019_Dec_02_1507,trustSTIs,3.0.0b12,59.97821904065472,
M042C,faces/M042C.jpg,3.357862932,Nondominant,Could not handle criticism without crying,oversensitive,implicit,congruent,,,,,,,,,,0,18,18,27,,,left,1.4570709243416786,,,,,,,,,3,093,2019_Dec_02_1507,trustSTIs,3.0.0b12,59.97821904065472,
M072C,faces/M072C.jpg,5.269657165,Dominant,Declined to attend a friend's holiday party,determined,mismatch,incongruent,,,,,,,,,,0,19,19,13,,,right,3.2899375976994634,,,,,,,,,3,093,2019_Dec_02_1507,trustSTIs,3.0.0b12,59.97821904065472,
M014C,faces/M014C.jpg,3.179939585,Nondominant,Attended a rally to oppose a bigoted politician,purposeful,implicit,incongruent,,,,,,,,,,0,20,20,20,,,left,1.7390779769048095,,,,,,,,,3,093,2019_Dec_02_1507,trustSTIs,3.0.0b12,59.97821904065472,
M031C,faces/M031C.jpg,2.62550405,Nondominant,Was persuasive and won a debate in record time,persuasive,explicit,incongruent,,,,,,,,,,0,21,21,24,,,left,1.7906805747188628,,,,,,,,,3,093,2019_Dec_02_1507,trustSTIs,3.0.0b12,59.97821904065472,
M002C,faces/M002C.jpg,5.85635085,Dominant,Went skydiving without hesitation,fearless,implicit,congruent,,,,,,,,,,0,22,22,0,,,left,2.107121225912124,,,,,,,,,3,093,2019_Dec_02_1507,trustSTIs,3.0.0b12,59.97821904065472,
M050C,faces/M050C.jpg,4.80090731,Dominant,Was talented and scored seven touchdowns in a single game,talented,explicit,congruent,,,,,,,,,,0,23,23,8,,,left,3.040777456946671,,,,,,,,,3,093,2019_Dec_02_1507,trustSTIs,3.0.0b12,59.97821904065472,
M067C,faces/M067C.jpg,4.70614921,Dominant,Forgot their spouse's birthday,absent-minded,implicit,incongruent,,,,,,,,,,0,24,24,11,,,right,1.1724987388588488,,,,,,,,,3,093,2019_Dec_02_1507,trustSTIs,3.0.0b12,59.97821904065472,
M009C,faces/M009C.jpg,5.208669305,Dominant,Introduced himself to everyone at the party,outgoing,implicit,congruent,,,,,,,,,,0,25,25,1,,,left,1.340676917694509,,,,,,,,,3,093,2019_Dec_02_1507,trustSTIs,3.0.0b12,59.97821904065472,
M001C,faces/M001C.jpg,3.061491945,Nondominant,Convinced their group to follow their lead,influential,implicit,incongruent,,,,,,,,,,0,26,26,18,,,right,0.9231958417221904,,,,,,,,,3,093,2019_Dec_02_1507,trustSTIs,3.0.0b12,59.97821904065472,
M027C,faces/M027C.jpg,5.03477819,Dominant,Completed four work projects in a single week,quiet,mismatch,congruent,,,,,,,,,,0,27,27,5,,,right,1.9073402052745223,,,,,,,,,3,093,2019_Dec_02_1507,trustSTIs,3.0.0b12,59.97821904065472,
M078C,faces/M078C.jpg,3.31552405,Nondominant,Was unconvincing and could not win an argument with a coworker,unconvincing,explicit,congruent,,,,,,,,,,0,28,28,33,,,left,2.673693085089326,,,,,,,,,3,093,2019_Dec_02_1507,trustSTIs,3.0.0b12,59.97821904065472,
M036C,faces/M036C.jpg,2.442540253,Nondominant,Was competent and spoke five languages and could read three more,competent,explicit,incongruent,,,,,,,,,,0,29,29,26,,,left,1.3905311455018818,,,,,,,,,3,093,2019_Dec_02_1507,trustSTIs,3.0.0b12,59.97821904065472,
M054C,faces/M054C.jpg,5.90524195,Dominant,Decided not to complete an assignment,lazy,implicit,incongruent,,,,,,,,,,0,30,30,9,,,right,1.3407086771912873,,,,,,,,,3,093,2019_Dec_02_1507,trustSTIs,3.0.0b12,59.97821904065472,
M066C,faces/M066C.jpg,3.618447645,Nondominant,Could not finish a simple work project in in time,assertive,mismatch,congruent,,,,,,,,,,0,31,31,30,,,right,1.1402113055810332,,,,,,,,,3,093,2019_Dec_02_1507,trustSTIs,3.0.0b12,59.97821904065472,
M038C,faces/M039C.jpg,5.087197565,Dominant,Was confident and was sure of all of their answers on the exam,confident,explicit,congruent,,,,,,,,,,0,32,32,7,,,right,1.7729793647304177,,,,,,,,,3,093,2019_Dec_02_1507,trustSTIs,3.0.0b12,59.97821904065472,
M074C,faces/M074C.jpg,4.90020156,Dominant,Dressed in the same style as all of their friends,proud,mismatch,incongruent,,,,,,,,,,0,33,33,14,,,right,2.1573248067870736,,,,,,,,,3,093,2019_Dec_02_1507,trustSTIs,3.0.0b12,59.97821904065472,
M016C,faces/M016C.jpg,2.91229845,Nondominant,Gave a speech in support of a controversial topic,passive,mismatch,incongruent,,,,,,,,,,0,34,34,21,,,right,2.224650229793042,,,,,,,,,3,093,2019_Dec_02_1507,trustSTIs,3.0.0b12,59.97821904065472,
M057C,faces/M057C.jpg,3.348286281,Nondominant,Worried that their friends talked behind their back,anxious,implicit,congruent,,,,,,,,,,0,35,35,29,,,left,1.5555779761634767,,,,,,,,,3,093,2019_Dec_02_1507,trustSTIs,3.0.0b12,59.97821904065472,
,,,,,,,,,,,,,,,,,,,,,,,,,20,7.767,,,,,,,3,093,2019_Dec_02_1507,trustSTIs,3.0.0b12,59.97821904065472,
,,,,,,,,,,,,,,,,,,,,,,,,,,,right,3.2169737592339516,,,,,3,093,2019_Dec_02_1507,trustSTIs,3.0.0b12,59.97821904065472,
,,,,,,,,,,,,,,,,,,,,,,,,,,,,,down,5.85015565296635,,,3,093,2019_Dec_02_1507,trustSTIs,3.0.0b12,59.97821904065472,
,,,,,,,,,,,,,,,,,,,,,,,,,,,,,,,w,9.383689081296325,3,093,2019_Dec_02_1507,trustSTIs,3.0.0b12,59.97821904065472,
