stimID,face,mDominance,dominance,behavior,trait,trialType,congruence,dist,encodingLoop.thisRepN,encodingLoop.thisTrialN,encodingLoop.thisN,encodingLoop.thisIndex,distLoop.thisRepN,distLoop.thisTrialN,distLoop.thisN,distLoop.thisIndex,recognitionLoop.thisRepN,recognitionLoop.thisTrialN,recognitionLoop.thisN,recognitionLoop.thisIndex,distAnswers.keys,distAnswers.rt,keyResp.keys,keyResp.rt,ageRate.response,ageRate.rt,eflResp.keys,eflResp.rt,genderResp.keys,genderResp.rt,ethResp.keys,ethResp.rt,condition,participant,date,expName,psychopyVersion,frameRate,
M092C,faces/M092C.jpg,3.25806462,Nondominant,Could not remember the last time they hung out with a friend,lonely,implicit,congruent,,0,0,0,35,,,,,,,,,,,,,,,,,,,,,2,098,2019_Dec_03_1255,trustSTIs,3.0.0b12,59.88916908247284,
M001C,faces/M001C.jpg,3.061491945,Nondominant,Convinced their group to follow their lead,lazy,mismatch,incongruent,,0,1,1,18,,,,,,,,,,,,,,,,,,,,,2,098,2019_Dec_03_1255,trustSTIs,3.0.0b12,59.88916908247284,
M030C,faces/M030C.jpg,4.779233991,Dominant,Ordered food for everyone at the dinner table,decisive,implicit,congruent,,0,2,2,6,,,,,,,,,,,,,,,,,,,,,2,098,2019_Dec_03_1255,trustSTIs,3.0.0b12,59.88916908247284,
M010C,faces/M010C.jpg,3.430947582,Nondominant,Proclaimed himself their group's leader,submissive,mismatch,incongruent,,0,3,3,19,,,,,,,,,,,,,,,,,,,,,2,098,2019_Dec_03_1255,trustSTIs,3.0.0b12,59.88916908247284,
M009C,faces/M009C.jpg,5.208669305,Dominant,Introduced himself to everyone at the party,worrying,mismatch,congruent,,0,4,4,1,,,,,,,,,,,,,,,,,,,,,2,098,2019_Dec_03_1255,trustSTIs,3.0.0b12,59.88916908247284,
M036C,faces/M036C.jpg,2.442540253,Nondominant,Spoke five languages and could read three more,competent,implicit,incongruent,,0,5,5,26,,,,,,,,,,,,,,,,,,,,,2,098,2019_Dec_03_1255,trustSTIs,3.0.0b12,59.88916908247284,
M002C,faces/M002C.jpg,5.85635085,Dominant,Went skydiving without hesitation,oversensitive,mismatch,congruent,,0,6,6,0,,,,,,,,,,,,,,,,,,,,,2,098,2019_Dec_03_1255,trustSTIs,3.0.0b12,59.88916908247284,
M062C,faces/M062C.jpg,4.50907254,Dominant,Stood and listened to their boss berate them,dominant,mismatch,incongruent,,0,7,7,10,,,,,,,,,,,,,,,,,,,,,2,098,2019_Dec_03_1255,trustSTIs,3.0.0b12,59.88916908247284,
M016C,faces/M016C.jpg,2.91229845,Nondominant,Was bold and gave a speech in support of a controversial topic,bold,explicit,incongruent,,0,8,8,21,,,,,,,,,,,,,,,,,,,,,2,098,2019_Dec_03_1255,trustSTIs,3.0.0b12,59.88916908247284,
M021C,faces/M021C.jpg,3.62298385,Nondominant,Was determined and pedaled harder to ensure they won the race,determined,explicit,incongruent,,0,9,9,22,,,,,,,,,,,,,,,,,,,,,2,098,2019_Dec_03_1255,trustSTIs,3.0.0b12,59.88916908247284,
M066C,faces/M066C.jpg,3.618447645,Nondominant,Was incompetent and could not finish a simple work project in in time,incompetent,explicit,congruent,,0,10,10,30,,,,,,,,,,,,,,,,,,,,,2,098,2019_Dec_03_1255,trustSTIs,3.0.0b12,59.88916908247284,
M023C,faces/M023C.jpg,5.23991936,Dominant,Was independent and declined to ask for help when solving a difficult problem,independent,explicit,congruent,,0,11,11,4,,,,,,,,,,,,,,,,,,,,,2,098,2019_Dec_03_1255,trustSTIs,3.0.0b12,59.88916908247284,
M095C,faces/M095C.jpg,4.7610887,Dominant,Did not want to speak up about their own opinions,soft-spoken,implicit,incongruent,,0,12,12,17,,,,,,,,,,,,,,,,,,,,,2,098,2019_Dec_03_1255,trustSTIs,3.0.0b12,59.88916908247284,
M054C,faces/M054C.jpg,5.90524195,Dominant,Decided not to complete an assignment,influential,mismatch,incongruent,,0,13,13,9,,,,,,,,,,,,,,,,,,,,,2,098,2019_Dec_03_1255,trustSTIs,3.0.0b12,59.88916908247284,
M034C,faces/M034C.jpg,3.175403159,Nondominant,Stood up for their beliefs even when it was unpopular,courageous,implicit,incongruent,,0,14,14,25,,,,,,,,,,,,,,,,,,,,,2,098,2019_Dec_03_1255,trustSTIs,3.0.0b12,59.88916908247284,
M078C,faces/M078C.jpg,3.31552405,Nondominant,Could not win an argument with a coworker,unconvincing,implicit,congruent,,0,15,15,33,,,,,,,,,,,,,,,,,,,,,2,098,2019_Dec_03_1255,trustSTIs,3.0.0b12,59.88916908247284,
M070C,faces/M070C.jpg,3.235887104,Nondominant,Was weak and could not lift a 50lb bag of cement,weak,explicit,congruent,,0,16,16,31,,,,,,,,,,,,,,,,,,,,,2,098,2019_Dec_03_1255,trustSTIs,3.0.0b12,59.88916908247284,
M074C,faces/M074C.jpg,4.90020156,Dominant,Was conformist and dressed in the same style as all of their friends,conformist,explicit,incongruent,,0,17,17,14,,,,,,,,,,,,,,,,,,,,,2,098,2019_Dec_03_1255,trustSTIs,3.0.0b12,59.88916908247284,
M072C,faces/M072C.jpg,5.269657165,Dominant,Was unsociable and declined to attend a friend's holiday party,unsociable,explicit,incongruent,,0,18,18,13,,,,,,,,,,,,,,,,,,,,,2,098,2019_Dec_03_1255,trustSTIs,3.0.0b12,59.88916908247284,
M069C,faces/M069C.jpg,4.9460686,Dominant,Was passive and decided to avoid an argument out of a fear of losing,passive,explicit,incongruent,,0,19,19,12,,,,,,,,,,,,,,,,,,,,,2,098,2019_Dec_03_1255,trustSTIs,3.0.0b12,59.88916908247284,
M050C,faces/M050C.jpg,4.80090731,Dominant,Scored seven touchdowns in a single game,talented,implicit,congruent,,0,20,20,8,,,,,,,,,,,,,,,,,,,,,2,098,2019_Dec_03_1255,trustSTIs,3.0.0b12,59.88916908247284,
M042C,faces/M042C.jpg,3.357862932,Nondominant,Could not handle criticism without crying,fearless,mismatch,congruent,,0,21,21,27,,,,,,,,,,,,,,,,,,,,,2,098,2019_Dec_03_1255,trustSTIs,3.0.0b12,59.88916908247284,
M089C,faces/M089C.jpg,2.621975722,Nondominant,Afraid of being hit by a car when crossing a street,nervous,implicit,congruent,,0,22,22,34,,,,,,,,,,,,,,,,,,,,,2,098,2019_Dec_03_1255,trustSTIs,3.0.0b12,59.88916908247284,
M047C,faces/M047C.jpg,3.392641182,Nondominant,Often "checked in" on their children's mental health,outgoing,mismatch,congruent,,0,23,23,28,,,,,,,,,,,,,,,,,,,,,2,098,2019_Dec_03_1255,trustSTIs,3.0.0b12,59.88916908247284,
M014C,faces/M014C.jpg,3.179939585,Nondominant,Attended a rally to oppose a bigoted politician,absent-minded,mismatch,incongruent,,0,24,24,20,,,,,,,,,,,,,,,,,,,,,2,098,2019_Dec_03_1255,trustSTIs,3.0.0b12,59.88916908247284,
M027C,faces/M027C.jpg,5.03477819,Dominant,Was productive and completed four work projects in a single week,productive,explicit,congruent,,0,25,25,5,,,,,,,,,,,,,,,,,,,,,2,098,2019_Dec_03_1255,trustSTIs,3.0.0b12,59.88916908247284,
M024C,faces/M024C.jpg,3.67187497,Nondominant,Was proud and believed that they were the most intelligent in their class,proud,explicit,incongruent,,0,26,26,23,,,,,,,,,,,,,,,,,,,,,2,098,2019_Dec_03_1255,trustSTIs,3.0.0b12,59.88916908247284,
M057C,faces/M057C.jpg,3.348286281,Nondominant,Worried that their friends talked behind their back,smart,mismatch,congruent,,0,27,27,29,,,,,,,,,,,,,,,,,,,,,2,098,2019_Dec_03_1255,trustSTIs,3.0.0b12,59.88916908247284,
M031C,faces/M031C.jpg,2.62550405,Nondominant,Won a debate in record time,persuasive,implicit,incongruent,,0,28,28,24,,,,,,,,,,,,,,,,,,,,,2,098,2019_Dec_03_1255,trustSTIs,3.0.0b12,59.88916908247284,
M022C,faces/M022C.jpg,5.63911285,Dominant,Was assertive and took over their work team when they needed a leader,assertive,explicit,congruent,,0,29,29,3,,,,,,,,,,,,,,,,,,,,,2,098,2019_Dec_03_1255,trustSTIs,3.0.0b12,59.88916908247284,
M090C,faces/M090C.jpg,4.571572515,Dominant,Believed they could build a flying car,foolish,implicit,incongruent,,0,30,30,16,,,,,,,,,,,,,,,,,,,,,2,098,2019_Dec_03_1255,trustSTIs,3.0.0b12,59.88916908247284,
M017C,faces/M017C.jpg,4.551915335,Dominant,Solved a Rubik's cube in four minutes,anxious,mismatch,congruent,,0,31,31,2,,,,,,,,,,,,,,,,,,,,,2,098,2019_Dec_03_1255,trustSTIs,3.0.0b12,59.88916908247284,
M073C,faces/M073C.jpg,3.661794355,Nondominant,Was quiet and preferred not to speak up during a class discussion,quiet,explicit,congruent,,0,32,32,32,,,,,,,,,,,,,,,,,,,,,2,098,2019_Dec_03_1255,trustSTIs,3.0.0b12,59.88916908247284,
M088C,faces/M088C.jpg,4.727318497,Dominant,Sent money to a Nigerian scammer,gullible,implicit,incongruent,,0,33,33,15,,,,,,,,,,,,,,,,,,,,,2,098,2019_Dec_03_1255,trustSTIs,3.0.0b12,59.88916908247284,
M038C,faces/M039C.jpg,5.087197565,Dominant,Was sure of all of their answers on the exam,confident,implicit,congruent,,0,34,34,7,,,,,,,,,,,,,,,,,,,,,2,098,2019_Dec_03_1255,trustSTIs,3.0.0b12,59.88916908247284,
M067C,faces/M067C.jpg,4.70614921,Dominant,Forgot their spouse's birthday,purposeful,mismatch,incongruent,,0,35,35,11,,,,,,,,,,,,,,,,,,,,,2,098,2019_Dec_03_1255,trustSTIs,3.0.0b12,59.88916908247284,
,,,,,,,,7³ = ?,,,,,0,0,0,7,,,,,['space'],[38.82242580037564],,,,,,,,,,,2,098,2019_Dec_03_1255,trustSTIs,3.0.0b12,59.88916908247284,
,,,,,,,,(24 ÷ 3) x 5 = ?,,,,,0,1,1,5,,,,,['space'],[8.49936080025509],,,,,,,,,,,2,098,2019_Dec_03_1255,trustSTIs,3.0.0b12,59.88916908247284,
,,,,,,,,(5 x 4) - 12 = ?,,,,,0,2,2,9,,,,,['space'],[4.00747560011223],,,,,,,,,,,2,098,2019_Dec_03_1255,trustSTIs,3.0.0b12,59.88916908247284,
,,,,,,,,3² = ?,,,,,0,3,3,0,,,,,['space'],[1.6202326002530754],,,,,,,,,,,2,098,2019_Dec_03_1255,trustSTIs,3.0.0b12,59.88916908247284,
,,,,,,,,√100 = ?,,,,,0,4,4,3,,,,,['space'],[1.7866257997229695],,,,,,,,,,,2,098,2019_Dec_03_1255,trustSTIs,3.0.0b12,59.88916908247284,
,,,,,,,,169 ÷ 13 = ?,,,,,0,5,5,8,,,,,['space'],[2.5550268003717065],,,,,,,,,,,2,098,2019_Dec_03_1255,trustSTIs,3.0.0b12,59.88916908247284,
,,,,,,,,(5 + 7) ÷ 4 = ?,,,,,0,6,6,1,,,,,['space'],[3.824189600069076],,,,,,,,,,,2,098,2019_Dec_03_1255,trustSTIs,3.0.0b12,59.88916908247284,
,,,,,,,,54 ÷ 9 = ?,,,,,0,7,7,4,,,,,['space'],[1.8870703000575304],,,,,,,,,,,2,098,2019_Dec_03_1255,trustSTIs,3.0.0b12,59.88916908247284,
,,,,,,,,√49 x 7 = ?,,,,,0,8,8,6,,,,,['space'],[2.6884552999399602],,,,,,,,,,,2,098,2019_Dec_03_1255,trustSTIs,3.0.0b12,59.88916908247284,
,,,,,,,,6 * 9 = ?,,,,,0,9,9,2,,,,,['space'],[2.6719073997810483],,,,,,,,,,,2,098,2019_Dec_03_1255,trustSTIs,3.0.0b12,59.88916908247284,
M023C,faces/M023C.jpg,5.23991936,Dominant,Was independent and declined to ask for help when solving a difficult problem,independent,explicit,congruent,,,,,,,,,,0,0,0,4,,,right,7.230341200251132,,,,,,,,,2,098,2019_Dec_03_1255,trustSTIs,3.0.0b12,59.88916908247284,
M057C,faces/M057C.jpg,3.348286281,Nondominant,Worried that their friends talked behind their back,smart,mismatch,congruent,,,,,,,,,,0,1,1,29,,,left,2.0874667996540666,,,,,,,,,2,098,2019_Dec_03_1255,trustSTIs,3.0.0b12,59.88916908247284,
M054C,faces/M054C.jpg,5.90524195,Dominant,Decided not to complete an assignment,influential,mismatch,incongruent,,,,,,,,,,0,2,2,9,,,right,4.992805200163275,,,,,,,,,2,098,2019_Dec_03_1255,trustSTIs,3.0.0b12,59.88916908247284,
M095C,faces/M095C.jpg,4.7610887,Dominant,Did not want to speak up about their own opinions,soft-spoken,implicit,incongruent,,,,,,,,,,0,3,3,17,,,left,1.3861305001191795,,,,,,,,,2,098,2019_Dec_03_1255,trustSTIs,3.0.0b12,59.88916908247284,
M066C,faces/M066C.jpg,3.618447645,Nondominant,Was incompetent and could not finish a simple work project in in time,incompetent,explicit,congruent,,,,,,,,,,0,4,4,30,,,left,1.6533205998130143,,,,,,,,,2,098,2019_Dec_03_1255,trustSTIs,3.0.0b12,59.88916908247284,
M034C,faces/M034C.jpg,3.175403159,Nondominant,Stood up for their beliefs even when it was unpopular,courageous,implicit,incongruent,,,,,,,,,,0,5,5,25,,,right,2.104149399790913,,,,,,,,,2,098,2019_Dec_03_1255,trustSTIs,3.0.0b12,59.88916908247284,
M014C,faces/M014C.jpg,3.179939585,Nondominant,Attended a rally to oppose a bigoted politician,absent-minded,mismatch,incongruent,,,,,,,,,,0,6,6,20,,,left,3.055911500006914,,,,,,,,,2,098,2019_Dec_03_1255,trustSTIs,3.0.0b12,59.88916908247284,
M038C,faces/M039C.jpg,5.087197565,Dominant,Was sure of all of their answers on the exam,confident,implicit,congruent,,,,,,,,,,0,7,7,7,,,right,1.4028620002791286,,,,,,,,,2,098,2019_Dec_03_1255,trustSTIs,3.0.0b12,59.88916908247284,
M092C,faces/M092C.jpg,3.25806462,Nondominant,Could not remember the last time they hung out with a friend,lonely,implicit,congruent,,,,,,,,,,0,8,8,35,,,left,2.1375263002701104,,,,,,,,,2,098,2019_Dec_03_1255,trustSTIs,3.0.0b12,59.88916908247284,
M010C,faces/M010C.jpg,3.430947582,Nondominant,Proclaimed himself their group's leader,submissive,mismatch,incongruent,,,,,,,,,,0,9,9,19,,,left,1.5865128999575973,,,,,,,,,2,098,2019_Dec_03_1255,trustSTIs,3.0.0b12,59.88916908247284,
M050C,faces/M050C.jpg,4.80090731,Dominant,Scored seven touchdowns in a single game,talented,implicit,congruent,,,,,,,,,,0,10,10,8,,,left,2.9724098001606762,,,,,,,,,2,098,2019_Dec_03_1255,trustSTIs,3.0.0b12,59.88916908247284,
M017C,faces/M017C.jpg,4.551915335,Dominant,Solved a Rubik's cube in four minutes,anxious,mismatch,congruent,,,,,,,,,,0,11,11,2,,,left,4.725690199993551,,,,,,,,,2,098,2019_Dec_03_1255,trustSTIs,3.0.0b12,59.88916908247284,
M072C,faces/M072C.jpg,5.269657165,Dominant,Was unsociable and declined to attend a friend's holiday party,unsociable,explicit,incongruent,,,,,,,,,,0,12,12,13,,,left,1.9538766001351178,,,,,,,,,2,098,2019_Dec_03_1255,trustSTIs,3.0.0b12,59.88916908247284,
M002C,faces/M002C.jpg,5.85635085,Dominant,Went skydiving without hesitation,oversensitive,mismatch,congruent,,,,,,,,,,0,13,13,0,,,right,3.3564561996608973,,,,,,,,,2,098,2019_Dec_03_1255,trustSTIs,3.0.0b12,59.88916908247284,
M009C,faces/M009C.jpg,5.208669305,Dominant,Introduced himself to everyone at the party,worrying,mismatch,congruent,,,,,,,,,,0,14,14,1,,,left,1.118950099684298,,,,,,,,,2,098,2019_Dec_03_1255,trustSTIs,3.0.0b12,59.88916908247284,
M031C,faces/M031C.jpg,2.62550405,Nondominant,Won a debate in record time,persuasive,implicit,incongruent,,,,,,,,,,0,15,15,24,,,left,1.503028200007975,,,,,,,,,2,098,2019_Dec_03_1255,trustSTIs,3.0.0b12,59.88916908247284,
M089C,faces/M089C.jpg,2.621975722,Nondominant,Afraid of being hit by a car when crossing a street,nervous,implicit,congruent,,,,,,,,,,0,16,16,34,,,left,2.187596300151199,,,,,,,,,2,098,2019_Dec_03_1255,trustSTIs,3.0.0b12,59.88916908247284,
M027C,faces/M027C.jpg,5.03477819,Dominant,Was productive and completed four work projects in a single week,productive,explicit,congruent,,,,,,,,,,0,17,17,5,,,left,13.291574399918318,,,,,,,,,2,098,2019_Dec_03_1255,trustSTIs,3.0.0b12,59.88916908247284,
M047C,faces/M047C.jpg,3.392641182,Nondominant,Often "checked in" on their children's mental health,outgoing,mismatch,congruent,,,,,,,,,,0,18,18,28,,,right,1.9705658997409046,,,,,,,,,2,098,2019_Dec_03_1255,trustSTIs,3.0.0b12,59.88916908247284,
M001C,faces/M001C.jpg,3.061491945,Nondominant,Convinced their group to follow their lead,lazy,mismatch,incongruent,,,,,,,,,,0,19,19,18,,,right,1.9037758000195026,,,,,,,,,2,098,2019_Dec_03_1255,trustSTIs,3.0.0b12,59.88916908247284,
M067C,faces/M067C.jpg,4.70614921,Dominant,Forgot their spouse's birthday,purposeful,mismatch,incongruent,,,,,,,,,,0,20,20,11,,,left,1.436104299966246,,,,,,,,,2,098,2019_Dec_03_1255,trustSTIs,3.0.0b12,59.88916908247284,
M073C,faces/M073C.jpg,3.661794355,Nondominant,Was quiet and preferred not to speak up during a class discussion,quiet,explicit,congruent,,,,,,,,,,0,21,21,32,,,left,2.7052612002007663,,,,,,,,,2,098,2019_Dec_03_1255,trustSTIs,3.0.0b12,59.88916908247284,
M088C,faces/M088C.jpg,4.727318497,Dominant,Sent money to a Nigerian scammer,gullible,implicit,incongruent,,,,,,,,,,0,22,22,15,,,left,1.386150199919939,,,,,,,,,2,098,2019_Dec_03_1255,trustSTIs,3.0.0b12,59.88916908247284,
M024C,faces/M024C.jpg,3.67187497,Nondominant,Was proud and believed that they were the most intelligent in their class,proud,explicit,incongruent,,,,,,,,,,0,23,23,23,,,left,2.0707900999113917,,,,,,,,,2,098,2019_Dec_03_1255,trustSTIs,3.0.0b12,59.88916908247284,
M090C,faces/M090C.jpg,4.571572515,Dominant,Believed they could build a flying car,foolish,implicit,incongruent,,,,,,,,,,0,24,24,16,,,right,2.6217562998645008,,,,,,,,,2,098,2019_Dec_03_1255,trustSTIs,3.0.0b12,59.88916908247284,
M074C,faces/M074C.jpg,4.90020156,Dominant,Was conformist and dressed in the same style as all of their friends,conformist,explicit,incongruent,,,,,,,,,,0,25,25,14,,,left,1.5697951996698976,,,,,,,,,2,098,2019_Dec_03_1255,trustSTIs,3.0.0b12,59.88916908247284,
M062C,faces/M062C.jpg,4.50907254,Dominant,Stood and listened to their boss berate them,dominant,mismatch,incongruent,,,,,,,,,,0,26,26,10,,,left,2.270961500238627,,,,,,,,,2,098,2019_Dec_03_1255,trustSTIs,3.0.0b12,59.88916908247284,
M078C,faces/M078C.jpg,3.31552405,Nondominant,Could not win an argument with a coworker,unconvincing,implicit,congruent,,,,,,,,,,0,27,27,33,,,left,1.9037665002979338,,,,,,,,,2,098,2019_Dec_03_1255,trustSTIs,3.0.0b12,59.88916908247284,
M030C,faces/M030C.jpg,4.779233991,Dominant,Ordered food for everyone at the dinner table,decisive,implicit,congruent,,,,,,,,,,0,28,28,6,,,left,1.4862783998250961,,,,,,,,,2,098,2019_Dec_03_1255,trustSTIs,3.0.0b12,59.88916908247284,
M069C,faces/M069C.jpg,4.9460686,Dominant,Was passive and decided to avoid an argument out of a fear of losing,passive,explicit,incongruent,,,,,,,,,,0,29,29,12,,,left,1.5531407999806106,,,,,,,,,2,098,2019_Dec_03_1255,trustSTIs,3.0.0b12,59.88916908247284,
M042C,faces/M042C.jpg,3.357862932,Nondominant,Could not handle criticism without crying,fearless,mismatch,congruent,,,,,,,,,,0,30,30,27,,,right,4.65888880006969,,,,,,,,,2,098,2019_Dec_03_1255,trustSTIs,3.0.0b12,59.88916908247284,
M070C,faces/M070C.jpg,3.235887104,Nondominant,Was weak and could not lift a 50lb bag of cement,weak,explicit,congruent,,,,,,,,,,0,31,31,31,,,left,2.1375173996202648,,,,,,,,,2,098,2019_Dec_03_1255,trustSTIs,3.0.0b12,59.88916908247284,
M016C,faces/M016C.jpg,2.91229845,Nondominant,Was bold and gave a speech in support of a controversial topic,bold,explicit,incongruent,,,,,,,,,,0,32,32,21,,,left,1.8206130000762641,,,,,,,,,2,098,2019_Dec_03_1255,trustSTIs,3.0.0b12,59.88916908247284,
M021C,faces/M021C.jpg,3.62298385,Nondominant,Was determined and pedaled harder to ensure they won the race,determined,explicit,incongruent,,,,,,,,,,0,33,33,22,,,right,2.254422999918461,,,,,,,,,2,098,2019_Dec_03_1255,trustSTIs,3.0.0b12,59.88916908247284,
M022C,faces/M022C.jpg,5.63911285,Dominant,Was assertive and took over their work team when they needed a leader,assertive,explicit,congruent,,,,,,,,,,0,34,34,3,,,left,1.2358730998821557,,,,,,,,,2,098,2019_Dec_03_1255,trustSTIs,3.0.0b12,59.88916908247284,
M036C,faces/M036C.jpg,2.442540253,Nondominant,Spoke five languages and could read three more,competent,implicit,incongruent,,,,,,,,,,0,35,35,26,,,right,3.8908653003163636,,,,,,,,,2,098,2019_Dec_03_1255,trustSTIs,3.0.0b12,59.88916908247284,
,,,,,,,,,,,,,,,,,,,,,,,,,20,6.897,,,,,,,2,098,2019_Dec_03_1255,trustSTIs,3.0.0b12,59.88916908247284,
,,,,,,,,,,,,,,,,,,,,,,,,,,,right,3.172803099732846,,,,,2,098,2019_Dec_03_1255,trustSTIs,3.0.0b12,59.88916908247284,
,,,,,,,,,,,,,,,,,,,,,,,,,,,,,left,2.3212084998376667,,,2,098,2019_Dec_03_1255,trustSTIs,3.0.0b12,59.88916908247284,
,,,,,,,,,,,,,,,,,,,,,,,,,,,,,,,a,4.55869930004701,2,098,2019_Dec_03_1255,trustSTIs,3.0.0b12,59.88916908247284,
