stimID,face,mDominance,dominance,behavior,trait,trialType,congruence,dist,encodingLoop.thisRepN,encodingLoop.thisTrialN,encodingLoop.thisN,encodingLoop.thisIndex,distLoop.thisRepN,distLoop.thisTrialN,distLoop.thisN,distLoop.thisIndex,recognitionLoop.thisRepN,recognitionLoop.thisTrialN,recognitionLoop.thisN,recognitionLoop.thisIndex,distAnswers.keys,distAnswers.rt,keyResp.keys,keyResp.rt,ageRate.response,ageRate.rt,eflResp.keys,eflResp.rt,genderResp.keys,genderResp.rt,ethResp.keys,ethResp.rt,condition,participant,date,expName,psychopyVersion,frameRate,
M016C,faces/M016C.jpg,2.91229845,Nondominant,Decided to avoid an argument out of a fear of losing,bold,mismatch,congruent,,0,0,0,21,,,,,,,,,,,,,,,,,,,,,6,102,2019_Dec_04_1159,trustSTIs,3.0.0b12,59.888559468162335,
M021C,faces/M021C.jpg,3.62298385,Nondominant,Declined to attend a friend's holiday party,determined,mismatch,congruent,,0,1,1,22,,,,,,,,,,,,,,,,,,,,,6,102,2019_Dec_04_1159,trustSTIs,3.0.0b12,59.888559468162335,
M090C,faces/M090C.jpg,4.571572515,Dominant,Was courageous and stood up for their beliefs even when it was unpopular,courageous,explicit,congruent,,0,2,2,16,,,,,,,,,,,,,,,,,,,,,6,102,2019_Dec_04_1159,trustSTIs,3.0.0b12,59.888559468162335,
M024C,faces/M024C.jpg,3.67187497,Nondominant,Dressed in the same style as all of their friends,proud,mismatch,congruent,,0,3,3,23,,,,,,,,,,,,,,,,,,,,,6,102,2019_Dec_04_1159,trustSTIs,3.0.0b12,59.888559468162335,
M023C,faces/M023C.jpg,5.23991936,Dominant,Could not lift a 50lb bag of cement,independent,mismatch,incongruent,,0,4,4,4,,,,,,,,,,,,,,,,,,,,,6,102,2019_Dec_04_1159,trustSTIs,3.0.0b12,59.888559468162335,
M095C,faces/M095C.jpg,4.7610887,Dominant,Was competent and spoke five languages and could read three more,competent,explicit,congruent,,0,5,5,17,,,,,,,,,,,,,,,,,,,,,6,102,2019_Dec_04_1159,trustSTIs,3.0.0b12,59.888559468162335,
M057C,faces/M057C.jpg,3.348286281,Nondominant,Solved a Rubik's cube in four minutes,smart,implicit,incongruent,,0,6,6,29,,,,,,,,,,,,,,,,,,,,,6,102,2019_Dec_04_1159,trustSTIs,3.0.0b12,59.888559468162335,
M030C,faces/M030C.jpg,4.779233991,Dominant,Was unconvincing and could not win an argument with a coworker,unconvincing,explicit,incongruent,,0,7,7,6,,,,,,,,,,,,,,,,,,,,,6,102,2019_Dec_04_1159,trustSTIs,3.0.0b12,59.888559468162335,
M092C,faces/M092C.jpg,3.25806462,Nondominant,Was talented and scored seven touchdowns in a single game,talented,explicit,incongruent,,0,8,8,35,,,,,,,,,,,,,,,,,,,,,6,102,2019_Dec_04_1159,trustSTIs,3.0.0b12,59.888559468162335,
M010C,faces/M010C.jpg,3.430947582,Nondominant,Stood and listened to their boss berate them,submissive,implicit,congruent,,0,9,9,19,,,,,,,,,,,,,,,,,,,,,6,102,2019_Dec_04_1159,trustSTIs,3.0.0b12,59.888559468162335,
M067C,faces/M067C.jpg,4.70614921,Dominant,Attended a rally to oppose a bigoted politician,purposeful,implicit,congruent,,0,10,10,11,,,,,,,,,,,,,,,,,,,,,6,102,2019_Dec_04_1159,trustSTIs,3.0.0b12,59.888559468162335,
M027C,faces/M027C.jpg,5.03477819,Dominant,Preferred not to speak up during a class discussion,productive,mismatch,incongruent,,0,11,11,5,,,,,,,,,,,,,,,,,,,,,6,102,2019_Dec_04_1159,trustSTIs,3.0.0b12,59.888559468162335,
M014C,faces/M014C.jpg,3.179939585,Nondominant,Forgot their spouse's birthday,absent-minded,implicit,congruent,,0,12,12,20,,,,,,,,,,,,,,,,,,,,,6,102,2019_Dec_04_1159,trustSTIs,3.0.0b12,59.888559468162335,
M069C,faces/M069C.jpg,4.9460686,Dominant,Gave a speech in support of a controversial topic,passive,mismatch,congruent,,0,13,13,12,,,,,,,,,,,,,,,,,,,,,6,102,2019_Dec_04_1159,trustSTIs,3.0.0b12,59.888559468162335,
M009C,faces/M009C.jpg,5.208669305,Dominant,Often "checked in" on their children's mental health,worrying,implicit,incongruent,,0,14,14,1,,,,,,,,,,,,,,,,,,,,,6,102,2019_Dec_04_1159,trustSTIs,3.0.0b12,59.888559468162335,
M062C,faces/M062C.jpg,4.50907254,Dominant,Proclaimed himself their group's leader,dominant,implicit,congruent,,0,15,15,10,,,,,,,,,,,,,,,,,,,,,6,102,2019_Dec_04_1159,trustSTIs,3.0.0b12,59.888559468162335,
M070C,faces/M070C.jpg,3.235887104,Nondominant,Declined to ask for help when solving a difficult problem,weak,mismatch,incongruent,,0,16,16,31,,,,,,,,,,,,,,,,,,,,,6,102,2019_Dec_04_1159,trustSTIs,3.0.0b12,59.888559468162335,
M072C,faces/M072C.jpg,5.269657165,Dominant,Pedaled harder to ensure they won the race,unsociable,mismatch,congruent,,0,17,17,13,,,,,,,,,,,,,,,,,,,,,6,102,2019_Dec_04_1159,trustSTIs,3.0.0b12,59.888559468162335,
M073C,faces/M073C.jpg,3.661794355,Nondominant,Completed four work projects in a single week,quiet,mismatch,incongruent,,0,18,18,32,,,,,,,,,,,,,,,,,,,,,6,102,2019_Dec_04_1159,trustSTIs,3.0.0b12,59.888559468162335,
M042C,faces/M042C.jpg,3.357862932,Nondominant,Went skydiving without hesitation,fearless,implicit,incongruent,,0,19,19,27,,,,,,,,,,,,,,,,,,,,,6,102,2019_Dec_04_1159,trustSTIs,3.0.0b12,59.888559468162335,
M050C,faces/M050C.jpg,4.80090731,Dominant,Was lonely and could not remember the last time they hung out with a friend,lonely,explicit,incongruent,,0,20,20,8,,,,,,,,,,,,,,,,,,,,,6,102,2019_Dec_04_1159,trustSTIs,3.0.0b12,59.888559468162335,
M017C,faces/M017C.jpg,4.551915335,Dominant,Worried that their friends talked behind their back,anxious,implicit,incongruent,,0,21,21,2,,,,,,,,,,,,,,,,,,,,,6,102,2019_Dec_04_1159,trustSTIs,3.0.0b12,59.888559468162335,
M022C,faces/M022C.jpg,5.63911285,Dominant,Could not finish a simple work project in in time,assertive,mismatch,incongruent,,0,22,22,3,,,,,,,,,,,,,,,,,,,,,6,102,2019_Dec_04_1159,trustSTIs,3.0.0b12,59.888559468162335,
M078C,faces/M078C.jpg,3.31552405,Nondominant,Was decisive and ordered food for everyone at the dinner table,decisive,explicit,incongruent,,0,23,23,33,,,,,,,,,,,,,,,,,,,,,6,102,2019_Dec_04_1159,trustSTIs,3.0.0b12,59.888559468162335,
M088C,faces/M088C.jpg,4.727318497,Dominant,Was persuasive and won a debate in record time,persuasive,explicit,congruent,,0,24,24,15,,,,,,,,,,,,,,,,,,,,,6,102,2019_Dec_04_1159,trustSTIs,3.0.0b12,59.888559468162335,
M066C,faces/M066C.jpg,3.618447645,Nondominant,Took over their work team when they needed a leader,incompetent,mismatch,incongruent,,0,25,25,30,,,,,,,,,,,,,,,,,,,,,6,102,2019_Dec_04_1159,trustSTIs,3.0.0b12,59.888559468162335,
M089C,faces/M089C.jpg,2.621975722,Nondominant,Was confident and was sure of all of their answers on the exam,confident,explicit,incongruent,,0,26,26,34,,,,,,,,,,,,,,,,,,,,,6,102,2019_Dec_04_1159,trustSTIs,3.0.0b12,59.888559468162335,
M038C,faces/M039C.jpg,5.087197565,Dominant,Was nervous and was afraid of being hit by a car when crossing a street,nervous,explicit,incongruent,,0,27,27,7,,,,,,,,,,,,,,,,,,,,,6,102,2019_Dec_04_1159,trustSTIs,3.0.0b12,59.888559468162335,
M054C,faces/M054C.jpg,5.90524195,Dominant,Convinced their group to follow their lead,influential,implicit,congruent,,0,28,28,9,,,,,,,,,,,,,,,,,,,,,6,102,2019_Dec_04_1159,trustSTIs,3.0.0b12,59.888559468162335,
M074C,faces/M074C.jpg,4.90020156,Dominant,Believed that they were the most intelligent in their class,conformist,mismatch,congruent,,0,29,29,14,,,,,,,,,,,,,,,,,,,,,6,102,2019_Dec_04_1159,trustSTIs,3.0.0b12,59.888559468162335,
M036C,faces/M036C.jpg,2.442540253,Nondominant,Was soft-spoken and did not want to speak up about their own opinions,soft-spoken,explicit,congruent,,0,30,30,26,,,,,,,,,,,,,,,,,,,,,6,102,2019_Dec_04_1159,trustSTIs,3.0.0b12,59.888559468162335,
M001C,faces/M001C.jpg,3.061491945,Nondominant,Decided not to complete an assignment,lazy,implicit,congruent,,0,31,31,18,,,,,,,,,,,,,,,,,,,,,6,102,2019_Dec_04_1159,trustSTIs,3.0.0b12,59.888559468162335,
M031C,faces/M031C.jpg,2.62550405,Nondominant,Was gullible and sent money to a Nigerian scammer,gullible,explicit,congruent,,0,32,32,24,,,,,,,,,,,,,,,,,,,,,6,102,2019_Dec_04_1159,trustSTIs,3.0.0b12,59.888559468162335,
M034C,faces/M034C.jpg,3.175403159,Nondominant,Was foolish and believed they could build a flying car,foolish,explicit,congruent,,0,33,33,25,,,,,,,,,,,,,,,,,,,,,6,102,2019_Dec_04_1159,trustSTIs,3.0.0b12,59.888559468162335,
M047C,faces/M047C.jpg,3.392641182,Nondominant,Introduced himself to everyone at the party,outgoing,implicit,incongruent,,0,34,34,28,,,,,,,,,,,,,,,,,,,,,6,102,2019_Dec_04_1159,trustSTIs,3.0.0b12,59.888559468162335,
M002C,faces/M002C.jpg,5.85635085,Dominant,Could not handle criticism without crying,oversensitive,implicit,incongruent,,0,35,35,0,,,,,,,,,,,,,,,,,,,,,6,102,2019_Dec_04_1159,trustSTIs,3.0.0b12,59.888559468162335,
,,,,,,,,(5 + 7) ÷ 4 = ?,,,,,0,0,0,1,,,,,['space'],[7.096930299885571],,,,,,,,,,,6,102,2019_Dec_04_1159,trustSTIs,3.0.0b12,59.888559468162335,
,,,,,,,,54 ÷ 9 = ?,,,,,0,1,1,4,,,,,['space'],[5.844475400168449],,,,,,,,,,,6,102,2019_Dec_04_1159,trustSTIs,3.0.0b12,59.888559468162335,
,,,,,,,,√100 = ?,,,,,0,2,2,3,,,,,['space'],[3.12249769968912],,,,,,,,,,,6,102,2019_Dec_04_1159,trustSTIs,3.0.0b12,59.888559468162335,
,,,,,,,,√49 x 7 = ?,,,,,0,3,3,6,,,,,['space'],[4.575623199809343],,,,,,,,,,,6,102,2019_Dec_04_1159,trustSTIs,3.0.0b12,59.888559468162335,
,,,,,,,,6 * 9 = ?,,,,,0,4,4,2,,,,,['space'],[5.543703299947083],,,,,,,,,,,6,102,2019_Dec_04_1159,trustSTIs,3.0.0b12,59.888559468162335,
,,,,,,,,169 ÷ 13 = ?,,,,,0,5,5,8,,,,,['space'],[3.2732486999593675],,,,,,,,,,,6,102,2019_Dec_04_1159,trustSTIs,3.0.0b12,59.888559468162335,
,,,,,,,,(5 x 4) - 12 = ?,,,,,0,6,6,9,,,,,['space'],[5.543611299712211],,,,,,,,,,,6,102,2019_Dec_04_1159,trustSTIs,3.0.0b12,59.888559468162335,
,,,,,,,,7³ = ?,,,,,0,7,7,7,,,,,['space'],[18.033967399969697],,,,,,,,,,,6,102,2019_Dec_04_1159,trustSTIs,3.0.0b12,59.888559468162335,
,,,,,,,,(24 ÷ 3) x 5 = ?,,,,,0,8,8,5,,,,,['space'],[3.673593200277537],,,,,,,,,,,6,102,2019_Dec_04_1159,trustSTIs,3.0.0b12,59.888559468162335,
,,,,,,,,3² = ?,,,,,0,9,9,0,,,,,['space'],[2.004189300350845],,,,,,,,,,,6,102,2019_Dec_04_1159,trustSTIs,3.0.0b12,59.888559468162335,
M024C,faces/M024C.jpg,3.67187497,Nondominant,Dressed in the same style as all of their friends,proud,mismatch,congruent,,,,,,,,,,0,0,0,23,,,right,3.339776000007987,,,,,,,,,6,102,2019_Dec_04_1159,trustSTIs,3.0.0b12,59.888559468162335,
M050C,faces/M050C.jpg,4.80090731,Dominant,Was lonely and could not remember the last time they hung out with a friend,lonely,explicit,incongruent,,,,,,,,,,0,1,1,8,,,right,3.4900382002815604,,,,,,,,,6,102,2019_Dec_04_1159,trustSTIs,3.0.0b12,59.888559468162335,
M002C,faces/M002C.jpg,5.85635085,Dominant,Could not handle criticism without crying,oversensitive,implicit,incongruent,,,,,,,,,,0,2,2,0,,,right,1.5364437000826001,,,,,,,,,6,102,2019_Dec_04_1159,trustSTIs,3.0.0b12,59.888559468162335,
M031C,faces/M031C.jpg,2.62550405,Nondominant,Was gullible and sent money to a Nigerian scammer,gullible,explicit,congruent,,,,,,,,,,0,3,3,24,,,left,1.2190256998874247,,,,,,,,,6,102,2019_Dec_04_1159,trustSTIs,3.0.0b12,59.888559468162335,
M062C,faces/M062C.jpg,4.50907254,Dominant,Proclaimed himself their group's leader,dominant,implicit,congruent,,,,,,,,,,0,4,4,10,,,left,1.2859784997999668,,,,,,,,,6,102,2019_Dec_04_1159,trustSTIs,3.0.0b12,59.888559468162335,
M088C,faces/M088C.jpg,4.727318497,Dominant,Was persuasive and won a debate in record time,persuasive,explicit,congruent,,,,,,,,,,0,5,5,15,,,left,1.4696789998561144,,,,,,,,,6,102,2019_Dec_04_1159,trustSTIs,3.0.0b12,59.888559468162335,
M069C,faces/M069C.jpg,4.9460686,Dominant,Gave a speech in support of a controversial topic,passive,mismatch,congruent,,,,,,,,,,0,6,6,12,,,right,1.352610900066793,,,,,,,,,6,102,2019_Dec_04_1159,trustSTIs,3.0.0b12,59.888559468162335,
M067C,faces/M067C.jpg,4.70614921,Dominant,Attended a rally to oppose a bigoted politician,purposeful,implicit,congruent,,,,,,,,,,0,7,7,11,,,left,2.2878180001862347,,,,,,,,,6,102,2019_Dec_04_1159,trustSTIs,3.0.0b12,59.888559468162335,
M054C,faces/M054C.jpg,5.90524195,Dominant,Convinced their group to follow their lead,influential,implicit,congruent,,,,,,,,,,0,8,8,9,,,left,1.4863473000004888,,,,,,,,,6,102,2019_Dec_04_1159,trustSTIs,3.0.0b12,59.888559468162335,
M034C,faces/M034C.jpg,3.175403159,Nondominant,Was foolish and believed they could build a flying car,foolish,explicit,congruent,,,,,,,,,,0,9,9,25,,,left,2.2043410004116595,,,,,,,,,6,102,2019_Dec_04_1159,trustSTIs,3.0.0b12,59.888559468162335,
M073C,faces/M073C.jpg,3.661794355,Nondominant,Completed four work projects in a single week,quiet,mismatch,incongruent,,,,,,,,,,0,10,10,32,,,right,1.8870847998186946,,,,,,,,,6,102,2019_Dec_04_1159,trustSTIs,3.0.0b12,59.888559468162335,
M090C,faces/M090C.jpg,4.571572515,Dominant,Was courageous and stood up for their beliefs even when it was unpopular,courageous,explicit,congruent,,,,,,,,,,0,11,11,16,,,left,1.168950599618256,,,,,,,,,6,102,2019_Dec_04_1159,trustSTIs,3.0.0b12,59.888559468162335,
M021C,faces/M021C.jpg,3.62298385,Nondominant,Declined to attend a friend's holiday party,determined,mismatch,congruent,,,,,,,,,,0,12,12,22,,,left,2.254234299995005,,,,,,,,,6,102,2019_Dec_04_1159,trustSTIs,3.0.0b12,59.888559468162335,
M078C,faces/M078C.jpg,3.31552405,Nondominant,Was decisive and ordered food for everyone at the dinner table,decisive,explicit,incongruent,,,,,,,,,,0,13,13,33,,,right,2.822128700092435,,,,,,,,,6,102,2019_Dec_04_1159,trustSTIs,3.0.0b12,59.888559468162335,
M014C,faces/M014C.jpg,3.179939585,Nondominant,Forgot their spouse's birthday,absent-minded,implicit,congruent,,,,,,,,,,0,14,14,20,,,left,1.336196900345385,,,,,,,,,6,102,2019_Dec_04_1159,trustSTIs,3.0.0b12,59.888559468162335,
M027C,faces/M027C.jpg,5.03477819,Dominant,Preferred not to speak up during a class discussion,productive,mismatch,incongruent,,,,,,,,,,0,15,15,5,,,right,1.7201069998554885,,,,,,,,,6,102,2019_Dec_04_1159,trustSTIs,3.0.0b12,59.888559468162335,
M017C,faces/M017C.jpg,4.551915335,Dominant,Worried that their friends talked behind their back,anxious,implicit,incongruent,,,,,,,,,,0,16,16,2,,,left,1.369454300031066,,,,,,,,,6,102,2019_Dec_04_1159,trustSTIs,3.0.0b12,59.888559468162335,
M001C,faces/M001C.jpg,3.061491945,Nondominant,Decided not to complete an assignment,lazy,implicit,congruent,,,,,,,,,,0,17,17,18,,,left,1.953853199724108,,,,,,,,,6,102,2019_Dec_04_1159,trustSTIs,3.0.0b12,59.888559468162335,
M057C,faces/M057C.jpg,3.348286281,Nondominant,Solved a Rubik's cube in four minutes,smart,implicit,incongruent,,,,,,,,,,0,18,18,29,,,left,2.5049028997309506,,,,,,,,,6,102,2019_Dec_04_1159,trustSTIs,3.0.0b12,59.888559468162335,
M042C,faces/M042C.jpg,3.357862932,Nondominant,Went skydiving without hesitation,fearless,implicit,incongruent,,,,,,,,,,0,19,19,27,,,left,3.0056543997488916,,,,,,,,,6,102,2019_Dec_04_1159,trustSTIs,3.0.0b12,59.888559468162335,
M070C,faces/M070C.jpg,3.235887104,Nondominant,Declined to ask for help when solving a difficult problem,weak,mismatch,incongruent,,,,,,,,,,0,20,20,31,,,left,1.686722599901259,,,,,,,,,6,102,2019_Dec_04_1159,trustSTIs,3.0.0b12,59.888559468162335,
M038C,faces/M039C.jpg,5.087197565,Dominant,Was nervous and was afraid of being hit by a car when crossing a street,nervous,explicit,incongruent,,,,,,,,,,0,21,21,7,,,left,1.1690718000754714,,,,,,,,,6,102,2019_Dec_04_1159,trustSTIs,3.0.0b12,59.888559468162335,
M022C,faces/M022C.jpg,5.63911285,Dominant,Could not finish a simple work project in in time,assertive,mismatch,incongruent,,,,,,,,,,0,22,22,3,,,right,2.187588999979198,,,,,,,,,6,102,2019_Dec_04_1159,trustSTIs,3.0.0b12,59.888559468162335,
M036C,faces/M036C.jpg,2.442540253,Nondominant,Was soft-spoken and did not want to speak up about their own opinions,soft-spoken,explicit,congruent,,,,,,,,,,0,23,23,26,,,left,1.1523845000192523,,,,,,,,,6,102,2019_Dec_04_1159,trustSTIs,3.0.0b12,59.888559468162335,
M095C,faces/M095C.jpg,4.7610887,Dominant,Was competent and spoke five languages and could read three more,competent,explicit,congruent,,,,,,,,,,0,24,24,17,,,left,5.861125899944454,,,,,,,,,6,102,2019_Dec_04_1159,trustSTIs,3.0.0b12,59.888559468162335,
M089C,faces/M089C.jpg,2.621975722,Nondominant,Was confident and was sure of all of their answers on the exam,confident,explicit,incongruent,,,,,,,,,,0,25,25,34,,,left,1.2191665000282228,,,,,,,,,6,102,2019_Dec_04_1159,trustSTIs,3.0.0b12,59.888559468162335,
M010C,faces/M010C.jpg,3.430947582,Nondominant,Stood and listened to their boss berate them,submissive,implicit,congruent,,,,,,,,,,0,26,26,19,,,right,4.308231400325894,,,,,,,,,6,102,2019_Dec_04_1159,trustSTIs,3.0.0b12,59.888559468162335,
M023C,faces/M023C.jpg,5.23991936,Dominant,Could not lift a 50lb bag of cement,independent,mismatch,incongruent,,,,,,,,,,0,27,27,4,,,right,4.024396399967372,,,,,,,,,6,102,2019_Dec_04_1159,trustSTIs,3.0.0b12,59.888559468162335,
M066C,faces/M066C.jpg,3.618447645,Nondominant,Took over their work team when they needed a leader,incompetent,mismatch,incongruent,,,,,,,,,,0,28,28,30,,,right,2.504909799899906,,,,,,,,,6,102,2019_Dec_04_1159,trustSTIs,3.0.0b12,59.888559468162335,
M009C,faces/M009C.jpg,5.208669305,Dominant,Often "checked in" on their children's mental health,worrying,implicit,incongruent,,,,,,,,,,0,29,29,1,,,right,3.0058090002276003,,,,,,,,,6,102,2019_Dec_04_1159,trustSTIs,3.0.0b12,59.888559468162335,
M047C,faces/M047C.jpg,3.392641182,Nondominant,Introduced himself to everyone at the party,outgoing,implicit,incongruent,,,,,,,,,,0,30,30,28,,,left,1.3026678003370762,,,,,,,,,6,102,2019_Dec_04_1159,trustSTIs,3.0.0b12,59.888559468162335,
M092C,faces/M092C.jpg,3.25806462,Nondominant,Was talented and scored seven touchdowns in a single game,talented,explicit,incongruent,,,,,,,,,,0,31,31,35,,,right,1.2358753997832537,,,,,,,,,6,102,2019_Dec_04_1159,trustSTIs,3.0.0b12,59.888559468162335,
M074C,faces/M074C.jpg,4.90020156,Dominant,Believed that they were the most intelligent in their class,conformist,mismatch,congruent,,,,,,,,,,0,32,32,14,,,right,3.1060045999474823,,,,,,,,,6,102,2019_Dec_04_1159,trustSTIs,3.0.0b12,59.888559468162335,
M030C,faces/M030C.jpg,4.779233991,Dominant,Was unconvincing and could not win an argument with a coworker,unconvincing,explicit,incongruent,,,,,,,,,,0,33,33,6,,,left,1.6533645000308752,,,,,,,,,6,102,2019_Dec_04_1159,trustSTIs,3.0.0b12,59.888559468162335,
M016C,faces/M016C.jpg,2.91229845,Nondominant,Decided to avoid an argument out of a fear of losing,bold,mismatch,congruent,,,,,,,,,,0,34,34,21,,,right,1.7368181999772787,,,,,,,,,6,102,2019_Dec_04_1159,trustSTIs,3.0.0b12,59.888559468162335,
M072C,faces/M072C.jpg,5.269657165,Dominant,Pedaled harder to ensure they won the race,unsociable,mismatch,congruent,,,,,,,,,,0,35,35,13,,,right,1.5031111999414861,,,,,,,,,6,102,2019_Dec_04_1159,trustSTIs,3.0.0b12,59.888559468162335,
,,,,,,,,,,,,,,,,,,,,,,,,,21,9.284,,,,,,,6,102,2019_Dec_04_1159,trustSTIs,3.0.0b12,59.888559468162335,
,,,,,,,,,,,,,,,,,,,,,,,,,,,left,3.2563606002368033,,,,,6,102,2019_Dec_04_1159,trustSTIs,3.0.0b12,59.888559468162335,
,,,,,,,,,,,,,,,,,,,,,,,,,,,,,left,4.0244185999035835,,,6,102,2019_Dec_04_1159,trustSTIs,3.0.0b12,59.888559468162335,
,,,,,,,,,,,,,,,,,,,,,,,,,,,,,,,a,4.258141300175339,6,102,2019_Dec_04_1159,trustSTIs,3.0.0b12,59.888559468162335,
