stimID,face,mDominance,dominance,behavior,trait,trialType,congruence,dist,encodingLoop.thisRepN,encodingLoop.thisTrialN,encodingLoop.thisN,encodingLoop.thisIndex,distLoop.thisRepN,distLoop.thisTrialN,distLoop.thisN,distLoop.thisIndex,recognitionLoop.thisRepN,recognitionLoop.thisTrialN,recognitionLoop.thisN,recognitionLoop.thisIndex,distAnswers.keys,distAnswers.rt,keyResp.keys,keyResp.rt,ageRate.response,ageRate.rt,eflResp.keys,eflResp.rt,genderResp.keys,genderResp.rt,ethResp.keys,ethResp.rt,condition,participant,date,expName,psychopyVersion,frameRate,
M016C,faces/M016C.jpg,2.91229845,Nondominant,Gave a speech in support of a controversial topic,passive,mismatch,incongruent,,0,0,0,21,,,,,,,,,,,,,,,,,,,,,3,105,2019_Dec_05_1021,trustSTIs,3.0.0b12,59.89802959893921,
M027C,faces/M027C.jpg,5.03477819,Dominant,Completed four work projects in a single week,quiet,mismatch,congruent,,0,1,1,5,,,,,,,,,,,,,,,,,,,,,3,105,2019_Dec_05_1021,trustSTIs,3.0.0b12,59.89802959893921,
M073C,faces/M073C.jpg,3.661794355,Nondominant,Preferred not to speak up during a class discussion,productive,mismatch,congruent,,0,2,2,32,,,,,,,,,,,,,,,,,,,,,3,105,2019_Dec_05_1021,trustSTIs,3.0.0b12,59.89802959893921,
M078C,faces/M078C.jpg,3.31552405,Nondominant,Was unconvincing and could not win an argument with a coworker,unconvincing,explicit,congruent,,0,3,3,33,,,,,,,,,,,,,,,,,,,,,3,105,2019_Dec_05_1021,trustSTIs,3.0.0b12,59.89802959893921,
M023C,faces/M023C.jpg,5.23991936,Dominant,Declined to ask for help when solving a difficult problem,weak,mismatch,congruent,,0,4,4,4,,,,,,,,,,,,,,,,,,,,,3,105,2019_Dec_05_1021,trustSTIs,3.0.0b12,59.89802959893921,
M010C,faces/M010C.jpg,3.430947582,Nondominant,Proclaimed himself their group's leader,dominant,implicit,incongruent,,0,5,5,19,,,,,,,,,,,,,,,,,,,,,3,105,2019_Dec_05_1021,trustSTIs,3.0.0b12,59.89802959893921,
M036C,faces/M036C.jpg,2.442540253,Nondominant,Was competent and spoke five languages and could read three more,competent,explicit,incongruent,,0,6,6,26,,,,,,,,,,,,,,,,,,,,,3,105,2019_Dec_05_1021,trustSTIs,3.0.0b12,59.89802959893921,
M002C,faces/M002C.jpg,5.85635085,Dominant,Went skydiving without hesitation,fearless,implicit,congruent,,0,7,7,0,,,,,,,,,,,,,,,,,,,,,3,105,2019_Dec_05_1021,trustSTIs,3.0.0b12,59.89802959893921,
M062C,faces/M062C.jpg,4.50907254,Dominant,Stood and listened to their boss berate them,submissive,implicit,incongruent,,0,8,8,10,,,,,,,,,,,,,,,,,,,,,3,105,2019_Dec_05_1021,trustSTIs,3.0.0b12,59.89802959893921,
M021C,faces/M021C.jpg,3.62298385,Nondominant,Pedaled harder to ensure they won the race,unsociable,mismatch,incongruent,,0,9,9,22,,,,,,,,,,,,,,,,,,,,,3,105,2019_Dec_05_1021,trustSTIs,3.0.0b12,59.89802959893921,
M069C,faces/M069C.jpg,4.9460686,Dominant,Decided to avoid an argument out of a fear of losing,bold,mismatch,incongruent,,0,10,10,12,,,,,,,,,,,,,,,,,,,,,3,105,2019_Dec_05_1021,trustSTIs,3.0.0b12,59.89802959893921,
M017C,faces/M017C.jpg,4.551915335,Dominant,Solved a Rubik's cube in four minutes,smart,implicit,congruent,,0,11,11,2,,,,,,,,,,,,,,,,,,,,,3,105,2019_Dec_05_1021,trustSTIs,3.0.0b12,59.89802959893921,
M030C,faces/M030C.jpg,4.779233991,Dominant,Was decisive and ordered food for everyone at the dinner table,decisive,explicit,congruent,,0,12,12,6,,,,,,,,,,,,,,,,,,,,,3,105,2019_Dec_05_1021,trustSTIs,3.0.0b12,59.89802959893921,
M054C,faces/M054C.jpg,5.90524195,Dominant,Decided not to complete an assignment,lazy,implicit,incongruent,,0,13,13,9,,,,,,,,,,,,,,,,,,,,,3,105,2019_Dec_05_1021,trustSTIs,3.0.0b12,59.89802959893921,
M001C,faces/M001C.jpg,3.061491945,Nondominant,Convinced their group to follow their lead,influential,implicit,incongruent,,0,14,14,18,,,,,,,,,,,,,,,,,,,,,3,105,2019_Dec_05_1021,trustSTIs,3.0.0b12,59.89802959893921,
M072C,faces/M072C.jpg,5.269657165,Dominant,Declined to attend a friend's holiday party,determined,mismatch,incongruent,,0,15,15,13,,,,,,,,,,,,,,,,,,,,,3,105,2019_Dec_05_1021,trustSTIs,3.0.0b12,59.89802959893921,
M031C,faces/M031C.jpg,2.62550405,Nondominant,Was persuasive and won a debate in record time,persuasive,explicit,incongruent,,0,16,16,24,,,,,,,,,,,,,,,,,,,,,3,105,2019_Dec_05_1021,trustSTIs,3.0.0b12,59.89802959893921,
M024C,faces/M024C.jpg,3.67187497,Nondominant,Believed that they were the most intelligent in their class,conformist,mismatch,incongruent,,0,17,17,23,,,,,,,,,,,,,,,,,,,,,3,105,2019_Dec_05_1021,trustSTIs,3.0.0b12,59.89802959893921,
M047C,faces/M047C.jpg,3.392641182,Nondominant,Often "checked in" on their children's mental health,worrying,implicit,congruent,,0,18,18,28,,,,,,,,,,,,,,,,,,,,,3,105,2019_Dec_05_1021,trustSTIs,3.0.0b12,59.89802959893921,
M089C,faces/M089C.jpg,2.621975722,Nondominant,Was nervous and was afraid of being hit by a car when crossing a street,nervous,explicit,congruent,,0,19,19,34,,,,,,,,,,,,,,,,,,,,,3,105,2019_Dec_05_1021,trustSTIs,3.0.0b12,59.89802959893921,
M022C,faces/M022C.jpg,5.63911285,Dominant,Took over their work team when they needed a leader,incompetent,mismatch,congruent,,0,20,20,3,,,,,,,,,,,,,,,,,,,,,3,105,2019_Dec_05_1021,trustSTIs,3.0.0b12,59.89802959893921,
M066C,faces/M066C.jpg,3.618447645,Nondominant,Could not finish a simple work project in in time,assertive,mismatch,congruent,,0,21,21,30,,,,,,,,,,,,,,,,,,,,,3,105,2019_Dec_05_1021,trustSTIs,3.0.0b12,59.89802959893921,
M067C,faces/M067C.jpg,4.70614921,Dominant,Forgot their spouse's birthday,absent-minded,implicit,incongruent,,0,22,22,11,,,,,,,,,,,,,,,,,,,,,3,105,2019_Dec_05_1021,trustSTIs,3.0.0b12,59.89802959893921,
M042C,faces/M042C.jpg,3.357862932,Nondominant,Could not handle criticism without crying,oversensitive,implicit,congruent,,0,23,23,27,,,,,,,,,,,,,,,,,,,,,3,105,2019_Dec_05_1021,trustSTIs,3.0.0b12,59.89802959893921,
M009C,faces/M009C.jpg,5.208669305,Dominant,Introduced himself to everyone at the party,outgoing,implicit,congruent,,0,24,24,1,,,,,,,,,,,,,,,,,,,,,3,105,2019_Dec_05_1021,trustSTIs,3.0.0b12,59.89802959893921,
M095C,faces/M095C.jpg,4.7610887,Dominant,Was soft-spoken and did not want to speak up about their own opinions,soft-spoken,explicit,incongruent,,0,25,25,17,,,,,,,,,,,,,,,,,,,,,3,105,2019_Dec_05_1021,trustSTIs,3.0.0b12,59.89802959893921,
M090C,faces/M090C.jpg,4.571572515,Dominant,Was foolish and believed they could build a flying car,foolish,explicit,incongruent,,0,26,26,16,,,,,,,,,,,,,,,,,,,,,3,105,2019_Dec_05_1021,trustSTIs,3.0.0b12,59.89802959893921,
M092C,faces/M092C.jpg,3.25806462,Nondominant,Was lonely and could not remember the last time they hung out with a friend,lonely,explicit,congruent,,0,27,27,35,,,,,,,,,,,,,,,,,,,,,3,105,2019_Dec_05_1021,trustSTIs,3.0.0b12,59.89802959893921,
M070C,faces/M070C.jpg,3.235887104,Nondominant,Could not lift a 50lb bag of cement,independent,mismatch,congruent,,0,28,28,31,,,,,,,,,,,,,,,,,,,,,3,105,2019_Dec_05_1021,trustSTIs,3.0.0b12,59.89802959893921,
M057C,faces/M057C.jpg,3.348286281,Nondominant,Worried that their friends talked behind their back,anxious,implicit,congruent,,0,29,29,29,,,,,,,,,,,,,,,,,,,,,3,105,2019_Dec_05_1021,trustSTIs,3.0.0b12,59.89802959893921,
M050C,faces/M050C.jpg,4.80090731,Dominant,Was talented and scored seven touchdowns in a single game,talented,explicit,congruent,,0,30,30,8,,,,,,,,,,,,,,,,,,,,,3,105,2019_Dec_05_1021,trustSTIs,3.0.0b12,59.89802959893921,
M034C,faces/M034C.jpg,3.175403159,Nondominant,Was courageous and stood up for their beliefs even when it was unpopular,courageous,explicit,incongruent,,0,31,31,25,,,,,,,,,,,,,,,,,,,,,3,105,2019_Dec_05_1021,trustSTIs,3.0.0b12,59.89802959893921,
M074C,faces/M074C.jpg,4.90020156,Dominant,Dressed in the same style as all of their friends,proud,mismatch,incongruent,,0,32,32,14,,,,,,,,,,,,,,,,,,,,,3,105,2019_Dec_05_1021,trustSTIs,3.0.0b12,59.89802959893921,
M014C,faces/M014C.jpg,3.179939585,Nondominant,Attended a rally to oppose a bigoted politician,purposeful,implicit,incongruent,,0,33,33,20,,,,,,,,,,,,,,,,,,,,,3,105,2019_Dec_05_1021,trustSTIs,3.0.0b12,59.89802959893921,
M088C,faces/M088C.jpg,4.727318497,Dominant,Was gullible and sent money to a Nigerian scammer,gullible,explicit,incongruent,,0,34,34,15,,,,,,,,,,,,,,,,,,,,,3,105,2019_Dec_05_1021,trustSTIs,3.0.0b12,59.89802959893921,
M038C,faces/M039C.jpg,5.087197565,Dominant,Was confident and was sure of all of their answers on the exam,confident,explicit,congruent,,0,35,35,7,,,,,,,,,,,,,,,,,,,,,3,105,2019_Dec_05_1021,trustSTIs,3.0.0b12,59.89802959893921,
,,,,,,,,3² = ?,,,,,0,0,0,0,,,,,['space'],[19.603549499996006],,,,,,,,,,,3,105,2019_Dec_05_1021,trustSTIs,3.0.0b12,59.89802959893921,
,,,,,,,,(24 ÷ 3) x 5 = ?,,,,,0,1,1,5,,,,,['space'],[9.517903000116348],,,,,,,,,,,3,105,2019_Dec_05_1021,trustSTIs,3.0.0b12,59.89802959893921,
,,,,,,,,7³ = ?,,,,,0,2,2,7,,,,,['space'],[17.66642320016399],,,,,,,,,,,3,105,2019_Dec_05_1021,trustSTIs,3.0.0b12,59.89802959893921,
,,,,,,,,(5 x 4) - 12 = ?,,,,,0,3,3,9,,,,,['space'],[10.520099299959838],,,,,,,,,,,3,105,2019_Dec_05_1021,trustSTIs,3.0.0b12,59.89802959893921,
,,,,,,,,√100 = ?,,,,,0,4,4,3,,,,,['space'],[3.473134799860418],,,,,,,,,,,3,105,2019_Dec_05_1021,trustSTIs,3.0.0b12,59.89802959893921,
,,,,,,,,6 * 9 = ?,,,,,0,5,5,2,,,,,['space'],[6.846465900074691],,,,,,,,,,,3,105,2019_Dec_05_1021,trustSTIs,3.0.0b12,59.89802959893921,
,,,,,,,,(5 + 7) ÷ 4 = ?,,,,,0,6,6,1,,,,,['space'],[10.586654900107533],,,,,,,,,,,3,105,2019_Dec_05_1021,trustSTIs,3.0.0b12,59.89802959893921,
,,,,,,,,√49 x 7 = ?,,,,,0,7,7,6,,,,,['space'],[4.3915105001069605],,,,,,,,,,,3,105,2019_Dec_05_1021,trustSTIs,3.0.0b12,59.89802959893921,
,,,,,,,,169 ÷ 13 = ?,,,,,0,8,8,8,,,,,['space'],[8.43281070003286],,,,,,,,,,,3,105,2019_Dec_05_1021,trustSTIs,3.0.0b12,59.89802959893921,
,,,,,,,,54 ÷ 9 = ?,,,,,0,9,9,4,,,,,['space'],[8.382486700080335],,,,,,,,,,,3,105,2019_Dec_05_1021,trustSTIs,3.0.0b12,59.89802959893921,
M042C,faces/M042C.jpg,3.357862932,Nondominant,Could not handle criticism without crying,oversensitive,implicit,congruent,,,,,,,,,,0,0,0,27,,,left,10.736810500267893,,,,,,,,,3,105,2019_Dec_05_1021,trustSTIs,3.0.0b12,59.89802959893921,
M074C,faces/M074C.jpg,4.90020156,Dominant,Dressed in the same style as all of their friends,proud,mismatch,incongruent,,,,,,,,,,0,1,1,14,,,right,2.6050654002465308,,,,,,,,,3,105,2019_Dec_05_1021,trustSTIs,3.0.0b12,59.89802959893921,
M050C,faces/M050C.jpg,4.80090731,Dominant,Was talented and scored seven touchdowns in a single game,talented,explicit,congruent,,,,,,,,,,0,2,2,8,,,left,2.337766700424254,,,,,,,,,3,105,2019_Dec_05_1021,trustSTIs,3.0.0b12,59.89802959893921,
M017C,faces/M017C.jpg,4.551915335,Dominant,Solved a Rubik's cube in four minutes,smart,implicit,congruent,,,,,,,,,,0,3,3,2,,,left,2.1709137996658683,,,,,,,,,3,105,2019_Dec_05_1021,trustSTIs,3.0.0b12,59.89802959893921,
M036C,faces/M036C.jpg,2.442540253,Nondominant,Was competent and spoke five languages and could read three more,competent,explicit,incongruent,,,,,,,,,,0,4,4,26,,,left,0.8852500002831221,,,,,,,,,3,105,2019_Dec_05_1021,trustSTIs,3.0.0b12,59.89802959893921,
M057C,faces/M057C.jpg,3.348286281,Nondominant,Worried that their friends talked behind their back,anxious,implicit,congruent,,,,,,,,,,0,5,5,29,,,right,1.068957599811256,,,,,,,,,3,105,2019_Dec_05_1021,trustSTIs,3.0.0b12,59.89802959893921,
M034C,faces/M034C.jpg,3.175403159,Nondominant,Was courageous and stood up for their beliefs even when it was unpopular,courageous,explicit,incongruent,,,,,,,,,,0,6,6,25,,,left,1.736897200345993,,,,,,,,,3,105,2019_Dec_05_1021,trustSTIs,3.0.0b12,59.89802959893921,
M024C,faces/M024C.jpg,3.67187497,Nondominant,Believed that they were the most intelligent in their class,conformist,mismatch,incongruent,,,,,,,,,,0,7,7,23,,,left,1.8536362000741065,,,,,,,,,3,105,2019_Dec_05_1021,trustSTIs,3.0.0b12,59.89802959893921,
M095C,faces/M095C.jpg,4.7610887,Dominant,Was soft-spoken and did not want to speak up about their own opinions,soft-spoken,explicit,incongruent,,,,,,,,,,0,8,8,17,,,left,1.3193578999489546,,,,,,,,,3,105,2019_Dec_05_1021,trustSTIs,3.0.0b12,59.89802959893921,
M038C,faces/M039C.jpg,5.087197565,Dominant,Was confident and was sure of all of their answers on the exam,confident,explicit,congruent,,,,,,,,,,0,9,9,7,,,right,1.102282699663192,,,,,,,,,3,105,2019_Dec_05_1021,trustSTIs,3.0.0b12,59.89802959893921,
M016C,faces/M016C.jpg,2.91229845,Nondominant,Gave a speech in support of a controversial topic,passive,mismatch,incongruent,,,,,,,,,,0,10,10,21,,,right,0.98536689998582,,,,,,,,,3,105,2019_Dec_05_1021,trustSTIs,3.0.0b12,59.89802959893921,
M072C,faces/M072C.jpg,5.269657165,Dominant,Declined to attend a friend's holiday party,determined,mismatch,incongruent,,,,,,,,,,0,11,11,13,,,left,3.139231000095606,,,,,,,,,3,105,2019_Dec_05_1021,trustSTIs,3.0.0b12,59.89802959893921,
M031C,faces/M031C.jpg,2.62550405,Nondominant,Was persuasive and won a debate in record time,persuasive,explicit,incongruent,,,,,,,,,,0,12,12,24,,,left,1.5531132998876274,,,,,,,,,3,105,2019_Dec_05_1021,trustSTIs,3.0.0b12,59.89802959893921,
M067C,faces/M067C.jpg,4.70614921,Dominant,Forgot their spouse's birthday,absent-minded,implicit,incongruent,,,,,,,,,,0,13,13,11,,,left,2.755334500223398,,,,,,,,,3,105,2019_Dec_05_1021,trustSTIs,3.0.0b12,59.89802959893921,
M014C,faces/M014C.jpg,3.179939585,Nondominant,Attended a rally to oppose a bigoted politician,purposeful,implicit,incongruent,,,,,,,,,,0,14,14,20,,,left,2.1041472000069916,,,,,,,,,3,105,2019_Dec_05_1021,trustSTIs,3.0.0b12,59.89802959893921,
M070C,faces/M070C.jpg,3.235887104,Nondominant,Could not lift a 50lb bag of cement,independent,mismatch,congruent,,,,,,,,,,0,15,15,31,,,right,1.5864999000914395,,,,,,,,,3,105,2019_Dec_05_1021,trustSTIs,3.0.0b12,59.89802959893921,
M054C,faces/M054C.jpg,5.90524195,Dominant,Decided not to complete an assignment,lazy,implicit,incongruent,,,,,,,,,,0,16,16,9,,,left,1.887063399888575,,,,,,,,,3,105,2019_Dec_05_1021,trustSTIs,3.0.0b12,59.89802959893921,
M089C,faces/M089C.jpg,2.621975722,Nondominant,Was nervous and was afraid of being hit by a car when crossing a street,nervous,explicit,congruent,,,,,,,,,,0,17,17,34,,,right,5.1431256998330355,,,,,,,,,3,105,2019_Dec_05_1021,trustSTIs,3.0.0b12,59.89802959893921,
M078C,faces/M078C.jpg,3.31552405,Nondominant,Was unconvincing and could not win an argument with a coworker,unconvincing,explicit,congruent,,,,,,,,,,0,18,18,33,,,left,2.5048636002466083,,,,,,,,,3,105,2019_Dec_05_1021,trustSTIs,3.0.0b12,59.89802959893921,
M062C,faces/M062C.jpg,4.50907254,Dominant,Stood and listened to their boss berate them,submissive,implicit,incongruent,,,,,,,,,,0,19,19,10,,,right,1.4362373002804816,,,,,,,,,3,105,2019_Dec_05_1021,trustSTIs,3.0.0b12,59.89802959893921,
M023C,faces/M023C.jpg,5.23991936,Dominant,Declined to ask for help when solving a difficult problem,weak,mismatch,congruent,,,,,,,,,,0,20,20,4,,,left,1.5197374997660518,,,,,,,,,3,105,2019_Dec_05_1021,trustSTIs,3.0.0b12,59.89802959893921,
M030C,faces/M030C.jpg,4.779233991,Dominant,Was decisive and ordered food for everyone at the dinner table,decisive,explicit,congruent,,,,,,,,,,0,21,21,6,,,right,2.5215681004337966,,,,,,,,,3,105,2019_Dec_05_1021,trustSTIs,3.0.0b12,59.89802959893921,
M088C,faces/M088C.jpg,4.727318497,Dominant,Was gullible and sent money to a Nigerian scammer,gullible,explicit,incongruent,,,,,,,,,,0,22,22,15,,,left,1.0688968999311328,,,,,,,,,3,105,2019_Dec_05_1021,trustSTIs,3.0.0b12,59.89802959893921,
M069C,faces/M069C.jpg,4.9460686,Dominant,Decided to avoid an argument out of a fear of losing,bold,mismatch,incongruent,,,,,,,,,,0,23,23,12,,,right,0.9186111995950341,,,,,,,,,3,105,2019_Dec_05_1021,trustSTIs,3.0.0b12,59.89802959893921,
M002C,faces/M002C.jpg,5.85635085,Dominant,Went skydiving without hesitation,fearless,implicit,congruent,,,,,,,,,,0,24,24,0,,,left,1.9872591998428106,,,,,,,,,3,105,2019_Dec_05_1021,trustSTIs,3.0.0b12,59.89802959893921,
M021C,faces/M021C.jpg,3.62298385,Nondominant,Pedaled harder to ensure they won the race,unsociable,mismatch,incongruent,,,,,,,,,,0,25,25,22,,,right,1.3360427003353834,,,,,,,,,3,105,2019_Dec_05_1021,trustSTIs,3.0.0b12,59.89802959893921,
M066C,faces/M066C.jpg,3.618447645,Nondominant,Could not finish a simple work project in in time,assertive,mismatch,congruent,,,,,,,,,,0,26,26,30,,,left,1.5197391998954117,,,,,,,,,3,105,2019_Dec_05_1021,trustSTIs,3.0.0b12,59.89802959893921,
M027C,faces/M027C.jpg,5.03477819,Dominant,Completed four work projects in a single week,quiet,mismatch,congruent,,,,,,,,,,0,27,27,5,,,right,1.2859724997542799,,,,,,,,,3,105,2019_Dec_05_1021,trustSTIs,3.0.0b12,59.89802959893921,
M010C,faces/M010C.jpg,3.430947582,Nondominant,Proclaimed himself their group's leader,dominant,implicit,incongruent,,,,,,,,,,0,28,28,19,,,right,0.8017478999681771,,,,,,,,,3,105,2019_Dec_05_1021,trustSTIs,3.0.0b12,59.89802959893921,
M022C,faces/M022C.jpg,5.63911285,Dominant,Took over their work team when they needed a leader,incompetent,mismatch,congruent,,,,,,,,,,0,29,29,3,,,right,0.8685075999237597,,,,,,,,,3,105,2019_Dec_05_1021,trustSTIs,3.0.0b12,59.89802959893921,
M001C,faces/M001C.jpg,3.061491945,Nondominant,Convinced their group to follow their lead,influential,implicit,incongruent,,,,,,,,,,0,30,30,18,,,left,1.2525545000098646,,,,,,,,,3,105,2019_Dec_05_1021,trustSTIs,3.0.0b12,59.89802959893921,
M009C,faces/M009C.jpg,5.208669305,Dominant,Introduced himself to everyone at the party,outgoing,implicit,congruent,,,,,,,,,,0,31,31,1,,,right,1.2859665001742542,,,,,,,,,3,105,2019_Dec_05_1021,trustSTIs,3.0.0b12,59.89802959893921,
M090C,faces/M090C.jpg,4.571572515,Dominant,Was foolish and believed they could build a flying car,foolish,explicit,incongruent,,,,,,,,,,0,32,32,16,,,left,1.0354750002734363,,,,,,,,,3,105,2019_Dec_05_1021,trustSTIs,3.0.0b12,59.89802959893921,
M073C,faces/M073C.jpg,3.661794355,Nondominant,Preferred not to speak up during a class discussion,productive,mismatch,congruent,,,,,,,,,,0,33,33,32,,,right,0.8852233998477459,,,,,,,,,3,105,2019_Dec_05_1021,trustSTIs,3.0.0b12,59.89802959893921,
M092C,faces/M092C.jpg,3.25806462,Nondominant,Was lonely and could not remember the last time they hung out with a friend,lonely,explicit,congruent,,,,,,,,,,0,34,34,35,,,left,1.1356921000406146,,,,,,,,,3,105,2019_Dec_05_1021,trustSTIs,3.0.0b12,59.89802959893921,
M047C,faces/M047C.jpg,3.392641182,Nondominant,Often "checked in" on their children's mental health,worrying,implicit,congruent,,,,,,,,,,0,35,35,28,,,left,0.7683156998828053,,,,,,,,,3,105,2019_Dec_05_1021,trustSTIs,3.0.0b12,59.89802959893921,
,,,,,,,,,,,,,,,,,,,,,,,,,18,11.471,,,,,,,3,105,2019_Dec_05_1021,trustSTIs,3.0.0b12,59.89802959893921,
,,,,,,,,,,,,,,,,,,,,,,,,,,,right,6.996711099985987,,,,,3,105,2019_Dec_05_1021,trustSTIs,3.0.0b12,59.89802959893921,
,,,,,,,,,,,,,,,,,,,,,,,,,,,,,left,2.554988299962133,,,3,105,2019_Dec_05_1021,trustSTIs,3.0.0b12,59.89802959893921,
,,,,,,,,,,,,,,,,,,,,,,,,,,,,,,,w,7.397312099579722,3,105,2019_Dec_05_1021,trustSTIs,3.0.0b12,59.89802959893921,
