stimID,face,mDominance,dominance,behavior,trait,trialType,congruence,dist,encodingLoop.thisRepN,encodingLoop.thisTrialN,encodingLoop.thisN,encodingLoop.thisIndex,distLoop.thisRepN,distLoop.thisTrialN,distLoop.thisN,distLoop.thisIndex,recognitionLoop.thisRepN,recognitionLoop.thisTrialN,recognitionLoop.thisN,recognitionLoop.thisIndex,distAnswers.keys,distAnswers.rt,keyResp.keys,keyResp.rt,ageRate.response,ageRate.rt,eflResp.keys,eflResp.rt,genderResp.keys,genderResp.rt,ethResp.keys,ethResp.rt,condition,participant,date,expName,psychopyVersion,frameRate,
M095C,faces/M095C.jpg,4.7610887,Dominant,Spoke five languages and could read three more,soft-spoken,mismatch,congruent,,0,0,0,17,,,,,,,,,,,,,,,,,,,,,4,106,2019_Dec_05_1023,trustSTIs,3.0.0b12,59.8892407338466,
M042C,faces/M042C.jpg,3.357862932,Nondominant,Was fearless and went skydiving without hesitation,fearless,explicit,incongruent,,0,1,1,27,,,,,,,,,,,,,,,,,,,,,4,106,2019_Dec_05_1023,trustSTIs,3.0.0b12,59.8892407338466,
M078C,faces/M078C.jpg,3.31552405,Nondominant,Ordered food for everyone at the dinner table,unconvincing,mismatch,incongruent,,0,2,2,33,,,,,,,,,,,,,,,,,,,,,4,106,2019_Dec_05_1023,trustSTIs,3.0.0b12,59.8892407338466,
M057C,faces/M057C.jpg,3.348286281,Nondominant,Was smart and solved a Rubik's cube in four minutes,smart,explicit,incongruent,,0,3,3,29,,,,,,,,,,,,,,,,,,,,,4,106,2019_Dec_05_1023,trustSTIs,3.0.0b12,59.8892407338466,
M023C,faces/M023C.jpg,5.23991936,Dominant,Could not lift a 50lb bag of cement,weak,implicit,incongruent,,0,4,4,4,,,,,,,,,,,,,,,,,,,,,4,106,2019_Dec_05_1023,trustSTIs,3.0.0b12,59.8892407338466,
M038C,faces/M039C.jpg,5.087197565,Dominant,Afraid of being hit by a car when crossing a street,confident,mismatch,incongruent,,0,5,5,7,,,,,,,,,,,,,,,,,,,,,4,106,2019_Dec_05_1023,trustSTIs,3.0.0b12,59.8892407338466,
M010C,faces/M010C.jpg,3.430947582,Nondominant,Was submissive and stood and listened to their boss berate them,submissive,explicit,congruent,,0,6,6,19,,,,,,,,,,,,,,,,,,,,,4,106,2019_Dec_05_1023,trustSTIs,3.0.0b12,59.8892407338466,
M072C,faces/M072C.jpg,5.269657165,Dominant,Pedaled harder to ensure they won the race,determined,implicit,congruent,,0,7,7,13,,,,,,,,,,,,,,,,,,,,,4,106,2019_Dec_05_1023,trustSTIs,3.0.0b12,59.8892407338466,
M024C,faces/M024C.jpg,3.67187497,Nondominant,Dressed in the same style as all of their friends,conformist,implicit,congruent,,0,8,8,23,,,,,,,,,,,,,,,,,,,,,4,106,2019_Dec_05_1023,trustSTIs,3.0.0b12,59.8892407338466,
M066C,faces/M066C.jpg,3.618447645,Nondominant,Took over their work team when they needed a leader,assertive,implicit,incongruent,,0,9,9,30,,,,,,,,,,,,,,,,,,,,,4,106,2019_Dec_05_1023,trustSTIs,3.0.0b12,59.8892407338466,
M001C,faces/M001C.jpg,3.061491945,Nondominant,Was lazy and decided not to complete an assignment,lazy,explicit,congruent,,0,10,10,18,,,,,,,,,,,,,,,,,,,,,4,106,2019_Dec_05_1023,trustSTIs,3.0.0b12,59.8892407338466,
M067C,faces/M067C.jpg,4.70614921,Dominant,Was purposeeful and attended a rally to oppose a bigoted politician,purposeful,explicit,congruent,,0,11,11,11,,,,,,,,,,,,,,,,,,,,,4,106,2019_Dec_05_1023,trustSTIs,3.0.0b12,59.8892407338466,
M002C,faces/M002C.jpg,5.85635085,Dominant,Was oversensitive and could not handle criticism without crying,oversensitive,explicit,incongruent,,0,12,12,0,,,,,,,,,,,,,,,,,,,,,4,106,2019_Dec_05_1023,trustSTIs,3.0.0b12,59.8892407338466,
M073C,faces/M073C.jpg,3.661794355,Nondominant,Completed four work projects in a single week,productive,implicit,incongruent,,0,13,13,32,,,,,,,,,,,,,,,,,,,,,4,106,2019_Dec_05_1023,trustSTIs,3.0.0b12,59.8892407338466,
M069C,faces/M069C.jpg,4.9460686,Dominant,Gave a speech in support of a controversial topic,bold,implicit,congruent,,0,14,14,12,,,,,,,,,,,,,,,,,,,,,4,106,2019_Dec_05_1023,trustSTIs,3.0.0b12,59.8892407338466,
M092C,faces/M092C.jpg,3.25806462,Nondominant,Scored seven touchdowns in a single game,lonely,mismatch,incongruent,,0,15,15,35,,,,,,,,,,,,,,,,,,,,,4,106,2019_Dec_05_1023,trustSTIs,3.0.0b12,59.8892407338466,
M017C,faces/M017C.jpg,4.551915335,Dominant,Was anxious and worried that their friends talked behind their back,anxious,explicit,incongruent,,0,16,16,2,,,,,,,,,,,,,,,,,,,,,4,106,2019_Dec_05_1023,trustSTIs,3.0.0b12,59.8892407338466,
M036C,faces/M036C.jpg,2.442540253,Nondominant,Did not want to speak up about their own opinions,competent,mismatch,congruent,,0,17,17,26,,,,,,,,,,,,,,,,,,,,,4,106,2019_Dec_05_1023,trustSTIs,3.0.0b12,59.8892407338466,
M090C,faces/M090C.jpg,4.571572515,Dominant,Stood up for their beliefs even when it was unpopular,foolish,mismatch,congruent,,0,18,18,16,,,,,,,,,,,,,,,,,,,,,4,106,2019_Dec_05_1023,trustSTIs,3.0.0b12,59.8892407338466,
M047C,faces/M047C.jpg,3.392641182,Nondominant,Was outgoing and introduced himself to everyone at the party,outgoing,explicit,incongruent,,0,19,19,28,,,,,,,,,,,,,,,,,,,,,4,106,2019_Dec_05_1023,trustSTIs,3.0.0b12,59.8892407338466,
M022C,faces/M022C.jpg,5.63911285,Dominant,Could not finish a simple work project in in time,incompetent,implicit,incongruent,,0,20,20,3,,,,,,,,,,,,,,,,,,,,,4,106,2019_Dec_05_1023,trustSTIs,3.0.0b12,59.8892407338466,
M062C,faces/M062C.jpg,4.50907254,Dominant,Was dominant and proclaimed himself their group's leader,dominant,explicit,congruent,,0,21,21,10,,,,,,,,,,,,,,,,,,,,,4,106,2019_Dec_05_1023,trustSTIs,3.0.0b12,59.8892407338466,
M088C,faces/M088C.jpg,4.727318497,Dominant,Won a debate in record time,gullible,mismatch,congruent,,0,22,22,15,,,,,,,,,,,,,,,,,,,,,4,106,2019_Dec_05_1023,trustSTIs,3.0.0b12,59.8892407338466,
M030C,faces/M030C.jpg,4.779233991,Dominant,Could not win an argument with a coworker,decisive,mismatch,incongruent,,0,23,23,6,,,,,,,,,,,,,,,,,,,,,4,106,2019_Dec_05_1023,trustSTIs,3.0.0b12,59.8892407338466,
M089C,faces/M089C.jpg,2.621975722,Nondominant,Was sure of all of their answers on the exam,nervous,mismatch,incongruent,,0,24,24,34,,,,,,,,,,,,,,,,,,,,,4,106,2019_Dec_05_1023,trustSTIs,3.0.0b12,59.8892407338466,
M031C,faces/M031C.jpg,2.62550405,Nondominant,Sent money to a Nigerian scammer,persuasive,mismatch,congruent,,0,25,25,24,,,,,,,,,,,,,,,,,,,,,4,106,2019_Dec_05_1023,trustSTIs,3.0.0b12,59.8892407338466,
M014C,faces/M014C.jpg,3.179939585,Nondominant,Was absent-minded and forgot their spouse's birthday,absent-minded,explicit,congruent,,0,26,26,20,,,,,,,,,,,,,,,,,,,,,4,106,2019_Dec_05_1023,trustSTIs,3.0.0b12,59.8892407338466,
M027C,faces/M027C.jpg,5.03477819,Dominant,Preferred not to speak up during a class discussion,quiet,implicit,incongruent,,0,27,27,5,,,,,,,,,,,,,,,,,,,,,4,106,2019_Dec_05_1023,trustSTIs,3.0.0b12,59.8892407338466,
M021C,faces/M021C.jpg,3.62298385,Nondominant,Declined to attend a friend's holiday party,unsociable,implicit,congruent,,0,28,28,22,,,,,,,,,,,,,,,,,,,,,4,106,2019_Dec_05_1023,trustSTIs,3.0.0b12,59.8892407338466,
M070C,faces/M070C.jpg,3.235887104,Nondominant,Declined to ask for help when solving a difficult problem,independent,implicit,incongruent,,0,29,29,31,,,,,,,,,,,,,,,,,,,,,4,106,2019_Dec_05_1023,trustSTIs,3.0.0b12,59.8892407338466,
M050C,faces/M050C.jpg,4.80090731,Dominant,Could not remember the last time they hung out with a friend,talented,mismatch,incongruent,,0,30,30,8,,,,,,,,,,,,,,,,,,,,,4,106,2019_Dec_05_1023,trustSTIs,3.0.0b12,59.8892407338466,
M054C,faces/M054C.jpg,5.90524195,Dominant,Was influential and convinced their group to follow their lead,influential,explicit,congruent,,0,31,31,9,,,,,,,,,,,,,,,,,,,,,4,106,2019_Dec_05_1023,trustSTIs,3.0.0b12,59.8892407338466,
M009C,faces/M009C.jpg,5.208669305,Dominant,Was worrying and often "checked in" on their children's mental health,worrying,explicit,incongruent,,0,32,32,1,,,,,,,,,,,,,,,,,,,,,4,106,2019_Dec_05_1023,trustSTIs,3.0.0b12,59.8892407338466,
M034C,faces/M034C.jpg,3.175403159,Nondominant,Believed they could build a flying car,courageous,mismatch,congruent,,0,33,33,25,,,,,,,,,,,,,,,,,,,,,4,106,2019_Dec_05_1023,trustSTIs,3.0.0b12,59.8892407338466,
M016C,faces/M016C.jpg,2.91229845,Nondominant,Decided to avoid an argument out of a fear of losing,passive,implicit,congruent,,0,34,34,21,,,,,,,,,,,,,,,,,,,,,4,106,2019_Dec_05_1023,trustSTIs,3.0.0b12,59.8892407338466,
M074C,faces/M074C.jpg,4.90020156,Dominant,Believed that they were the most intelligent in their class,proud,implicit,congruent,,0,35,35,14,,,,,,,,,,,,,,,,,,,,,4,106,2019_Dec_05_1023,trustSTIs,3.0.0b12,59.8892407338466,
,,,,,,,,(5 + 7) ÷ 4 = ?,,,,,0,0,0,1,,,,,['space'],[6.562641500029713],,,,,,,,,,,4,106,2019_Dec_05_1023,trustSTIs,3.0.0b12,59.8892407338466,
,,,,,,,,54 ÷ 9 = ?,,,,,0,1,1,4,,,,,['space'],[4.65869399998337],,,,,,,,,,,4,106,2019_Dec_05_1023,trustSTIs,3.0.0b12,59.8892407338466,
,,,,,,,,(24 ÷ 3) x 5 = ?,,,,,0,2,2,5,,,,,['space'],[3.0060376999899745],,,,,,,,,,,4,106,2019_Dec_05_1023,trustSTIs,3.0.0b12,59.8892407338466,
,,,,,,,,7³ = ?,,,,,0,3,3,7,,,,,['space'],[7.681148699950427],,,,,,,,,,,4,106,2019_Dec_05_1023,trustSTIs,3.0.0b12,59.8892407338466,
,,,,,,,,169 ÷ 13 = ?,,,,,0,4,4,8,,,,,['space'],[1.6866160999052227],,,,,,,,,,,4,106,2019_Dec_05_1023,trustSTIs,3.0.0b12,59.8892407338466,
,,,,,,,,√100 = ?,,,,,0,5,5,3,,,,,['space'],[1.2692586001940072],,,,,,,,,,,4,106,2019_Dec_05_1023,trustSTIs,3.0.0b12,59.8892407338466,
,,,,,,,,3² = ?,,,,,0,6,6,0,,,,,['space'],[1.252581300213933],,,,,,,,,,,4,106,2019_Dec_05_1023,trustSTIs,3.0.0b12,59.8892407338466,
,,,,,,,,√49 x 7 = ?,,,,,0,7,7,6,,,,,['space'],[3.0896067996509373],,,,,,,,,,,4,106,2019_Dec_05_1023,trustSTIs,3.0.0b12,59.8892407338466,
,,,,,,,,6 * 9 = ?,,,,,0,8,8,2,,,,,['space'],[1.886849599890411],,,,,,,,,,,4,106,2019_Dec_05_1023,trustSTIs,3.0.0b12,59.8892407338466,
,,,,,,,,(5 x 4) - 12 = ?,,,,,0,9,9,9,,,,,['space'],[3.590307699982077],,,,,,,,,,,4,106,2019_Dec_05_1023,trustSTIs,3.0.0b12,59.8892407338466,
M017C,faces/M017C.jpg,4.551915335,Dominant,Was anxious and worried that their friends talked behind their back,anxious,explicit,incongruent,,,,,,,,,,0,0,0,2,,,right,16.06338950013742,,,,,,,,,4,106,2019_Dec_05_1023,trustSTIs,3.0.0b12,59.8892407338466,
M088C,faces/M088C.jpg,4.727318497,Dominant,Won a debate in record time,gullible,mismatch,congruent,,,,,,,,,,0,1,1,15,,,right,7.080036100000143,,,,,,,,,4,106,2019_Dec_05_1023,trustSTIs,3.0.0b12,59.8892407338466,
M024C,faces/M024C.jpg,3.67187497,Nondominant,Dressed in the same style as all of their friends,conformist,implicit,congruent,,,,,,,,,,0,2,2,23,,,left,4.2414510999806225,,,,,,,,,4,106,2019_Dec_05_1023,trustSTIs,3.0.0b12,59.8892407338466,
M054C,faces/M054C.jpg,5.90524195,Dominant,Was influential and convinced their group to follow their lead,influential,explicit,congruent,,,,,,,,,,0,3,3,9,,,left,3.1561119998805225,,,,,,,,,4,106,2019_Dec_05_1023,trustSTIs,3.0.0b12,59.8892407338466,
M072C,faces/M072C.jpg,5.269657165,Dominant,Pedaled harder to ensure they won the race,determined,implicit,congruent,,,,,,,,,,0,4,4,13,,,left,5.727602500002831,,,,,,,,,4,106,2019_Dec_05_1023,trustSTIs,3.0.0b12,59.8892407338466,
M089C,faces/M089C.jpg,2.621975722,Nondominant,Was sure of all of their answers on the exam,nervous,mismatch,incongruent,,,,,,,,,,0,5,5,34,,,right,1.9875401998870075,,,,,,,,,4,106,2019_Dec_05_1023,trustSTIs,3.0.0b12,59.8892407338466,
M023C,faces/M023C.jpg,5.23991936,Dominant,Could not lift a 50lb bag of cement,weak,implicit,incongruent,,,,,,,,,,0,6,6,4,,,left,5.326792200095952,,,,,,,,,4,106,2019_Dec_05_1023,trustSTIs,3.0.0b12,59.8892407338466,
M009C,faces/M009C.jpg,5.208669305,Dominant,Was worrying and often "checked in" on their children's mental health,worrying,explicit,incongruent,,,,,,,,,,0,7,7,1,,,right,7.080063199624419,,,,,,,,,4,106,2019_Dec_05_1023,trustSTIs,3.0.0b12,59.8892407338466,
M067C,faces/M067C.jpg,4.70614921,Dominant,Was purposeeful and attended a rally to oppose a bigoted politician,purposeful,explicit,congruent,,,,,,,,,,0,8,8,11,,,left,2.70526049984619,,,,,,,,,4,106,2019_Dec_05_1023,trustSTIs,3.0.0b12,59.8892407338466,
M092C,faces/M092C.jpg,3.25806462,Nondominant,Scored seven touchdowns in a single game,lonely,mismatch,incongruent,,,,,,,,,,0,9,9,35,,,right,4.625263900030404,,,,,,,,,4,106,2019_Dec_05_1023,trustSTIs,3.0.0b12,59.8892407338466,
M073C,faces/M073C.jpg,3.661794355,Nondominant,Completed four work projects in a single week,productive,implicit,incongruent,,,,,,,,,,0,10,10,32,,,right,2.0540738999843597,,,,,,,,,4,106,2019_Dec_05_1023,trustSTIs,3.0.0b12,59.8892407338466,
M036C,faces/M036C.jpg,2.442540253,Nondominant,Did not want to speak up about their own opinions,competent,mismatch,congruent,,,,,,,,,,0,11,11,26,,,right,3.5907053002156317,,,,,,,,,4,106,2019_Dec_05_1023,trustSTIs,3.0.0b12,59.8892407338466,
M030C,faces/M030C.jpg,4.779233991,Dominant,Could not win an argument with a coworker,decisive,mismatch,incongruent,,,,,,,,,,0,12,12,6,,,left,5.159778800327331,,,,,,,,,4,106,2019_Dec_05_1023,trustSTIs,3.0.0b12,59.8892407338466,
M027C,faces/M027C.jpg,5.03477819,Dominant,Preferred not to speak up during a class discussion,quiet,implicit,incongruent,,,,,,,,,,0,13,13,5,,,right,5.360141800250858,,,,,,,,,4,106,2019_Dec_05_1023,trustSTIs,3.0.0b12,59.8892407338466,
M042C,faces/M042C.jpg,3.357862932,Nondominant,Was fearless and went skydiving without hesitation,fearless,explicit,incongruent,,,,,,,,,,0,14,14,27,,,left,2.9891524999402463,,,,,,,,,4,106,2019_Dec_05_1023,trustSTIs,3.0.0b12,59.8892407338466,
M014C,faces/M014C.jpg,3.179939585,Nondominant,Was absent-minded and forgot their spouse's birthday,absent-minded,explicit,congruent,,,,,,,,,,0,15,15,20,,,right,3.7739316998049617,,,,,,,,,4,106,2019_Dec_05_1023,trustSTIs,3.0.0b12,59.8892407338466,
M066C,faces/M066C.jpg,3.618447645,Nondominant,Took over their work team when they needed a leader,assertive,implicit,incongruent,,,,,,,,,,0,16,16,30,,,right,3.1727950000204146,,,,,,,,,4,106,2019_Dec_05_1023,trustSTIs,3.0.0b12,59.8892407338466,
M069C,faces/M069C.jpg,4.9460686,Dominant,Gave a speech in support of a controversial topic,bold,implicit,congruent,,,,,,,,,,0,17,17,12,,,left,5.493765400256962,,,,,,,,,4,106,2019_Dec_05_1023,trustSTIs,3.0.0b12,59.8892407338466,
M095C,faces/M095C.jpg,4.7610887,Dominant,Spoke five languages and could read three more,soft-spoken,mismatch,congruent,,,,,,,,,,0,18,18,17,,,left,3.4900918998755515,,,,,,,,,4,106,2019_Dec_05_1023,trustSTIs,3.0.0b12,59.8892407338466,
M078C,faces/M078C.jpg,3.31552405,Nondominant,Ordered food for everyone at the dinner table,unconvincing,mismatch,incongruent,,,,,,,,,,0,19,19,33,,,right,3.3731635003350675,,,,,,,,,4,106,2019_Dec_05_1023,trustSTIs,3.0.0b12,59.8892407338466,
M070C,faces/M070C.jpg,3.235887104,Nondominant,Declined to ask for help when solving a difficult problem,independent,implicit,incongruent,,,,,,,,,,0,20,20,31,,,left,3.9408911000937223,,,,,,,,,4,106,2019_Dec_05_1023,trustSTIs,3.0.0b12,59.8892407338466,
M062C,faces/M062C.jpg,4.50907254,Dominant,Was dominant and proclaimed himself their group's leader,dominant,explicit,congruent,,,,,,,,,,0,21,21,10,,,left,5.1097423997707665,,,,,,,,,4,106,2019_Dec_05_1023,trustSTIs,3.0.0b12,59.8892407338466,
M034C,faces/M034C.jpg,3.175403159,Nondominant,Believed they could build a flying car,courageous,mismatch,congruent,,,,,,,,,,0,22,22,25,,,left,5.126414000056684,,,,,,,,,4,106,2019_Dec_05_1023,trustSTIs,3.0.0b12,59.8892407338466,
M047C,faces/M047C.jpg,3.392641182,Nondominant,Was outgoing and introduced himself to everyone at the party,outgoing,explicit,incongruent,,,,,,,,,,0,23,23,28,,,left,2.120828799903393,,,,,,,,,4,106,2019_Dec_05_1023,trustSTIs,3.0.0b12,59.8892407338466,
M010C,faces/M010C.jpg,3.430947582,Nondominant,Was submissive and stood and listened to their boss berate them,submissive,explicit,congruent,,,,,,,,,,0,24,24,19,,,right,2.9555150996893644,,,,,,,,,4,106,2019_Dec_05_1023,trustSTIs,3.0.0b12,59.8892407338466,
M050C,faces/M050C.jpg,4.80090731,Dominant,Could not remember the last time they hung out with a friend,talented,mismatch,incongruent,,,,,,,,,,0,25,25,8,,,left,1.8874118002131581,,,,,,,,,4,106,2019_Dec_05_1023,trustSTIs,3.0.0b12,59.8892407338466,
M021C,faces/M021C.jpg,3.62298385,Nondominant,Declined to attend a friend's holiday party,unsociable,implicit,congruent,,,,,,,,,,0,26,26,22,,,right,4.541987299919128,,,,,,,,,4,106,2019_Dec_05_1023,trustSTIs,3.0.0b12,59.8892407338466,
M002C,faces/M002C.jpg,5.85635085,Dominant,Was oversensitive and could not handle criticism without crying,oversensitive,explicit,incongruent,,,,,,,,,,0,27,27,0,,,left,3.0392799000255764,,,,,,,,,4,106,2019_Dec_05_1023,trustSTIs,3.0.0b12,59.8892407338466,
M057C,faces/M057C.jpg,3.348286281,Nondominant,Was smart and solved a Rubik's cube in four minutes,smart,explicit,incongruent,,,,,,,,,,0,28,28,29,,,right,2.1211231001652777,,,,,,,,,4,106,2019_Dec_05_1023,trustSTIs,3.0.0b12,59.8892407338466,
M022C,faces/M022C.jpg,5.63911285,Dominant,Could not finish a simple work project in in time,incompetent,implicit,incongruent,,,,,,,,,,0,29,29,3,,,right,2.9390469999052584,,,,,,,,,4,106,2019_Dec_05_1023,trustSTIs,3.0.0b12,59.8892407338466,
M001C,faces/M001C.jpg,3.061491945,Nondominant,Was lazy and decided not to complete an assignment,lazy,explicit,congruent,,,,,,,,,,0,30,30,18,,,left,1.5197522998787463,,,,,,,,,4,106,2019_Dec_05_1023,trustSTIs,3.0.0b12,59.8892407338466,
M031C,faces/M031C.jpg,2.62550405,Nondominant,Sent money to a Nigerian scammer,persuasive,mismatch,congruent,,,,,,,,,,0,31,31,24,,,left,2.888955300208181,,,,,,,,,4,106,2019_Dec_05_1023,trustSTIs,3.0.0b12,59.8892407338466,
M074C,faces/M074C.jpg,4.90020156,Dominant,Believed that they were the most intelligent in their class,proud,implicit,congruent,,,,,,,,,,0,32,32,14,,,left,1.8202990000136197,,,,,,,,,4,106,2019_Dec_05_1023,trustSTIs,3.0.0b12,59.8892407338466,
M038C,faces/M039C.jpg,5.087197565,Dominant,Afraid of being hit by a car when crossing a street,confident,mismatch,incongruent,,,,,,,,,,0,33,33,7,,,left,1.7368157003074884,,,,,,,,,4,106,2019_Dec_05_1023,trustSTIs,3.0.0b12,59.8892407338466,
M090C,faces/M090C.jpg,4.571572515,Dominant,Stood up for their beliefs even when it was unpopular,foolish,mismatch,congruent,,,,,,,,,,0,34,34,16,,,right,1.9371639001183212,,,,,,,,,4,106,2019_Dec_05_1023,trustSTIs,3.0.0b12,59.8892407338466,
M016C,faces/M016C.jpg,2.91229845,Nondominant,Decided to avoid an argument out of a fear of losing,passive,implicit,congruent,,,,,,,,,,0,35,35,21,,,right,1.7033999003469944,,,,,,,,,4,106,2019_Dec_05_1023,trustSTIs,3.0.0b12,59.8892407338466,
,,,,,,,,,,,,,,,,,,,,,,,,,19,7.931,,,,,,,4,106,2019_Dec_05_1023,trustSTIs,3.0.0b12,59.8892407338466,
,,,,,,,,,,,,,,,,,,,,,,,,,,,right,3.072620099876076,,,,,4,106,2019_Dec_05_1023,trustSTIs,3.0.0b12,59.8892407338466,
,,,,,,,,,,,,,,,,,,,,,,,,,,,,,right,2.237871800083667,,,4,106,2019_Dec_05_1023,trustSTIs,3.0.0b12,59.8892407338466,
,,,,,,,,,,,,,,,,,,,,,,,,,,,,,,,a,5.0930244997143745,4,106,2019_Dec_05_1023,trustSTIs,3.0.0b12,59.8892407338466,
